timestamp_ms,accX,accY,accZ,omegaX,omegaY,omegaZ,magX,magY,magZ,temp,deg,duty,isStop,isCurve,isSlope,V_Lipo,V_Battery,isSlipping, slipMagnitude
23248,0.0,0.0,0.0,0.0,0.0,0.0,0.0,0.0,0.0,0.0,0.0,0.0,0,0,0,0.0,0.0,false,0.0
23248,0.0,0.0,0.0,0.0,0.0,0.0,0.0,0.0,0.0,0.0,0.0,0.0,0,0,0,0.0,0.0,false,0.0
23248,0.0,0.0,0.0,0.0,0.0,0.0,0.0,0.0,0.0,0.0,0.0,0.0,0,0,0,0.0,0.0,false,0.0
23259,0.0,0.0,0.0,0.0,0.0,0.0,0.0,0.0,0.0,0.0,0.0,0.0,0,0,0,0.0,0.0,false,0.0
23259,0.0,0.0,0.0,0.0,0.0,0.0,0.0,0.0,0.0,0.0,0.0,0.0,0,0,0,0.0,0.0,false,0.0
23259,0.0,0.0,0.0,0.0,0.0,0.0,0.0,0.0,0.0,0.0,0.0,0.0,0,0,0,0.0,0.0,false,0.0
23259,0.0,0.0,0.0,0.0,0.0,0.0,0.0,0.0,0.0,0.0,0.0,0.0,0,0,0,0.0,0.0,false,0.0
23259,0.0,0.0,0.0,0.0,0.0,0.0,0.0,0.0,0.0,0.0,0.0,0.0,0,0,0,0.0,0.0,false,0.0
23259,0.0,0.0,0.0,0.0,0.0,0.0,0.0,0.0,0.0,0.0,0.0,0.0,0,0,0,0.0,0.0,false,0.0
23259,0.0,0.0,0.0,0.0,0.0,0.0,0.0,0.0,0.0,0.0,0.0,0.0,0,0,0,0.0,0.0,false,0.0
23259,0.0,0.0,0.0,0.0,0.0,0.0,0.0,0.0,0.0,0.0,0.0,0.0,0,0,0,0.0,0.0,false,0.0
23259,0.0,0.0,0.0,0.0,0.0,0.0,0.0,0.0,0.0,0.0,0.0,0.0,0,0,0,0.0,0.0,false,0.0
23259,0.0,0.0,0.0,0.0,0.0,0.0,0.0,0.0,0.0,0.0,0.0,0.0,0,0,0,0.0,0.0,false,0.0
23259,0.0,0.0,0.0,0.0,0.0,0.0,0.0,0.0,0.0,0.0,0.0,0.0,0,0,0,0.0,0.0,false,0.0
23259,0.0,0.0,0.0,0.0,0.0,0.0,0.0,0.0,0.0,0.0,0.0,0.0,0,0,0,0.0,0.0,false,0.0
23260,0.0,0.0,0.0,0.0,0.0,0.0,0.0,0.0,0.0,0.0,0.0,0.0,0,0,0,0.0,0.0,false,0.0
23260,0.0,0.0,0.0,0.0,0.0,0.0,0.0,0.0,0.0,0.0,0.0,0.0,0,0,0,0.0,0.0,false,0.0
23260,0.0,0.0,0.0,0.0,0.0,0.0,0.0,0.0,0.0,0.0,0.0,0.0,0,0,0,0.0,0.0,false,0.0
23260,0.0,0.0,0.0,0.0,0.0,0.0,0.0,0.0,0.0,0.0,0.0,0.0,0,0,0,0.0,0.0,false,0.0
23260,0.0,0.0,0.0,0.0,0.0,0.0,0.0,0.0,0.0,0.0,0.0,0.0,0,0,0,0.0,0.0,false,0.0
23260,0.0,0.0,0.0,0.0,0.0,0.0,0.0,0.0,0.0,0.0,0.0,0.0,0,0,0,0.0,0.0,false,0.0
23260,0.0,0.0,0.0,0.0,0.0,0.0,0.0,0.0,0.0,0.0,0.0,0.0,0,0,0,0.0,0.0,false,0.0
23260,0.0,0.0,0.0,0.0,0.0,0.0,0.0,0.0,0.0,0.0,0.0,0.0,0,0,0,0.0,0.0,false,0.0
23260,0.0,0.0,0.0,0.0,0.0,0.0,0.0,0.0,0.0,0.0,0.0,0.0,0,0,0,0.0,0.0,false,0.0
23260,0.0,0.0,0.0,0.0,0.0,0.0,0.0,0.0,0.0,0.0,0.0,0.0,0,0,0,0.0,0.0,false,0.0
23260,0.0,0.0,0.0,0.0,0.0,0.0,0.0,0.0,0.0,0.0,0.0,0.0,0,0,0,0.0,0.0,false,0.0
23261,0.0,0.0,0.0,0.0,0.0,0.0,0.0,0.0,0.0,0.0,0.0,0.0,0,0,0,0.0,0.0,false,0.0
23261,0.0,0.0,0.0,0.0,0.0,0.0,0.0,0.0,0.0,0.0,0.0,0.0,0,0,0,0.0,0.0,false,0.0
23261,0.0,0.0,0.0,0.0,0.0,0.0,0.0,0.0,0.0,0.0,0.0,0.0,0,0,0,0.0,0.0,false,0.0
23261,0.0,0.0,0.0,0.0,0.0,0.0,0.0,0.0,0.0,0.0,0.0,0.0,0,0,0,0.0,0.0,false,0.0
23261,0.0,0.0,0.0,0.0,0.0,0.0,0.0,0.0,0.0,0.0,0.0,0.0,0,0,0,0.0,0.0,false,0.0
23261,0.0,0.0,0.0,0.0,0.0,0.0,0.0,0.0,0.0,0.0,0.0,0.0,0,0,0,0.0,0.0,false,0.0
23261,0.0,0.0,0.0,0.0,0.0,0.0,0.0,0.0,0.0,0.0,0.0,0.0,0,0,0,0.0,0.0,false,0.0
23261,0.0,0.0,0.0,0.0,0.0,0.0,0.0,0.0,0.0,0.0,0.0,0.0,0,0,0,0.0,0.0,false,0.0
23261,0.0,0.0,0.0,0.0,0.0,0.0,0.0,0.0,0.0,0.0,0.0,0.0,0,0,0,0.0,0.0,false,0.0
23261,0.0,0.0,0.0,0.0,0.0,0.0,0.0,0.0,0.0,0.0,0.0,0.0,0,0,0,0.0,0.0,false,0.0
23261,0.0,0.0,0.0,0.0,0.0,0.0,0.0,0.0,0.0,0.0,0.0,0.0,0,0,0,0.0,0.0,false,0.0
23261,0.0,0.0,0.0,0.0,0.0,0.0,0.0,0.0,0.0,0.0,0.0,0.0,0,0,0,0.0,0.0,false,0.0
23261,0.0,0.0,0.0,0.0,0.0,0.0,0.0,0.0,0.0,0.0,0.0,0.0,0,0,0,0.0,0.0,false,0.0
23261,0.0,0.0,0.0,0.0,0.0,0.0,0.0,0.0,0.0,0.0,0.0,0.0,0,0,0,0.0,0.0,false,0.0
23261,0.0,0.0,0.0,0.0,0.0,0.0,0.0,0.0,0.0,0.0,0.0,0.0,0,0,0,0.0,0.0,false,0.0
23261,0.0,0.0,0.0,0.0,0.0,0.0,0.0,0.0,0.0,0.0,0.0,0.0,0,0,0,0.0,0.0,false,0.0
23261,-0.010253906,-0.021484375,-1.0366211,0.012770702,0.1979459,0.029798305,183.0,39.300003,-18.900002,42.9,0.4504532,0.0,1,0,0,3.8905928,3.0234225,false,0.0
23302,-0.010253906,-0.021484375,-1.0366211,0.012770702,0.1979459,0.029798305,183.0,39.300003,-18.900002,42.9,0.4504532,0.0,1,0,0,3.8905928,3.0234225,false,0.0
23303,-0.010253906,-0.021484375,-1.0366211,0.012770702,0.1979459,0.029798305,183.0,39.300003,-18.900002,42.9,0.4504532,0.0,1,0,0,3.8905928,3.0234225,false,0.0
23303,-0.010253906,-0.021484375,-1.0366211,0.012770702,0.1979459,0.029798305,183.0,39.300003,-18.900002,42.9,0.4504532,0.0,1,0,0,3.8905928,3.0234225,false,0.0
23303,-0.010253906,-0.021484375,-1.0366211,0.012770702,0.1979459,0.029798305,183.0,39.300003,-18.900002,42.9,0.4504532,0.0,1,0,0,3.8905928,3.0234225,false,0.0
23303,-0.010253906,-0.021484375,-1.0366211,0.012770702,0.1979459,0.029798305,183.0,39.300003,-18.900002,42.9,0.4504532,0.0,1,0,0,3.8905928,3.0234225,false,0.0
23303,-0.010253906,-0.021484375,-1.0366211,0.012770702,0.1979459,0.029798305,183.0,39.300003,-18.900002,42.9,0.4504532,0.0,1,0,0,3.8905928,3.0234225,false,0.0
23303,-0.010253906,-0.021484375,-1.0366211,0.012770702,0.1979459,0.029798305,183.0,39.300003,-18.900002,42.9,0.4504532,0.0,1,0,0,3.8905928,3.0234225,false,0.0
23303,-0.010253906,-0.021484375,-1.0366211,0.012770702,0.1979459,0.029798305,183.0,39.300003,-18.900002,42.9,0.4504532,0.0,1,0,0,3.8905928,3.0234225,false,0.0
23303,-0.010253906,-0.021484375,-1.0366211,0.012770702,0.1979459,0.029798305,183.0,39.300003,-18.900002,42.9,0.4504532,0.0,1,0,0,3.8905928,3.0234225,false,0.0
23303,-0.010253906,-0.021484375,-1.0366211,0.012770702,0.1979459,0.029798305,183.0,39.300003,-18.900002,42.9,0.4504532,0.0,1,0,0,3.8905928,3.0234225,false,0.0
23303,-0.010253906,-0.021484375,-1.0366211,0.012770702,0.1979459,0.029798305,183.0,39.300003,-18.900002,42.9,0.4504532,0.0,1,0,0,3.8905928,3.0234225,false,0.0
23303,-0.010253906,-0.021484375,-1.0366211,0.012770702,0.1979459,0.029798305,183.0,39.300003,-18.900002,42.9,0.4504532,0.0,1,0,0,3.8905928,3.0234225,false,0.0
23304,-0.010253906,-0.021484375,-1.0366211,0.012770702,0.1979459,0.029798305,183.0,39.300003,-18.900002,42.9,0.4504532,0.0,1,0,0,3.8905928,3.0234225,false,0.0
23304,-0.010253906,-0.021484375,-1.0366211,0.012770702,0.1979459,0.029798305,183.0,39.300003,-18.900002,42.9,0.4504532,0.0,1,0,0,3.8905928,3.0234225,false,0.0
23304,-0.010253906,-0.021484375,-1.0366211,0.012770702,0.1979459,0.029798305,183.0,39.300003,-18.900002,42.9,0.4504532,0.0,1,0,0,3.8905928,3.0234225,false,0.0
23304,-0.010253906,-0.021484375,-1.0366211,0.012770702,0.1979459,0.029798305,183.0,39.300003,-18.900002,42.9,0.4504532,0.0,1,0,0,3.8905928,3.0234225,false,0.0
23304,-0.010253906,-0.021484375,-1.0366211,0.012770702,0.1979459,0.029798305,183.0,39.300003,-18.900002,42.9,0.4504532,0.0,1,0,0,3.8905928,3.0234225,false,0.0
23304,-0.010253906,-0.021484375,-1.0366211,0.012770702,0.1979459,0.029798305,183.0,39.300003,-18.900002,42.9,0.4504532,0.0,1,0,0,3.8905928,3.0234225,false,0.0
23304,-0.010253906,-0.021484375,-1.0366211,0.012770702,0.1979459,0.029798305,183.0,39.300003,-18.900002,42.9,0.4504532,0.0,1,0,0,3.8905928,3.0234225,false,0.0
23304,-0.010253906,-0.021484375,-1.0366211,0.012770702,0.1979459,0.029798305,183.0,39.300003,-18.900002,42.9,0.4504532,0.0,1,0,0,3.8905928,3.0234225,false,0.0
23304,-0.010253906,-0.021484375,-1.0366211,0.012770702,0.1979459,0.029798305,183.0,39.300003,-18.900002,42.9,0.4504532,0.0,1,0,0,3.8905928,3.0234225,false,0.0
23304,-0.010253906,-0.021484375,-1.0366211,0.012770702,0.1979459,0.029798305,183.0,39.300003,-18.900002,42.9,0.4504532,0.0,1,0,0,3.8905928,3.0234225,false,0.0
23304,-0.010253906,-0.021484375,-1.0366211,0.012770702,0.1979459,0.029798305,183.0,39.300003,-18.900002,42.9,0.4504532,0.0,1,0,0,3.8905928,3.0234225,false,0.0
23305,-0.010253906,-0.021484375,-1.0366211,0.012770702,0.1979459,0.029798305,183.0,39.300003,-18.900002,42.9,0.4504532,0.0,1,0,0,3.8905928,3.0234225,false,0.0
23305,-0.010253906,-0.021484375,-1.0366211,0.012770702,0.1979459,0.029798305,183.0,39.300003,-18.900002,42.9,0.4504532,0.0,1,0,0,3.8905928,3.0234225,false,0.0
23305,-0.010253906,-0.021484375,-1.0366211,0.012770702,0.1979459,0.029798305,183.0,39.300003,-18.900002,42.9,0.4504532,0.0,1,0,0,3.8905928,3.0234225,false,0.0
23305,-0.010253906,-0.021484375,-1.0366211,0.012770702,0.1979459,0.029798305,183.0,39.300003,-18.900002,42.9,0.4504532,0.0,1,0,0,3.8905928,3.0234225,false,0.0
23305,-0.010253906,-0.021484375,-1.0366211,0.012770702,0.1979459,0.029798305,183.0,39.300003,-18.900002,42.9,0.4504532,0.0,1,0,0,3.8905928,3.0234225,false,0.0
23305,-0.010253906,-0.021484375,-1.0366211,0.012770702,0.1979459,0.029798305,183.0,39.300003,-18.900002,42.9,0.4504532,0.0,1,0,0,3.8905928,3.0234225,false,0.0
23306,-0.010253906,-0.021484375,-1.0366211,0.012770702,0.1979459,0.029798305,183.0,39.300003,-18.900002,42.9,0.4504532,0.0,1,0,0,3.8905928,3.0234225,false,0.0
23306,-0.010253906,-0.021484375,-1.0366211,0.012770702,0.1979459,0.029798305,183.0,39.300003,-18.900002,42.9,0.4504532,0.0,1,0,0,3.8905928,3.0234225,false,0.0
23306,-0.010253906,-0.021484375,-1.0366211,0.012770702,0.1979459,0.029798305,183.0,39.300003,-18.900002,42.9,0.4504532,0.0,1,0,0,3.8905928,3.0234225,false,0.0
23306,-0.010253906,-0.021484375,-1.0366211,0.012770702,0.1979459,0.029798305,183.0,39.300003,-18.900002,42.9,0.4504532,0.0,1,0,0,3.8905928,3.0234225,false,0.0
23306,-0.010253906,-0.021484375,-1.0366211,0.012770702,0.1979459,0.029798305,183.0,39.300003,-18.900002,42.9,0.4504532,0.0,1,0,0,3.8905928,3.0234225,false,0.0
23306,-0.010253906,-0.021484375,-1.0366211,0.012770702,0.1979459,0.029798305,183.0,39.300003,-18.900002,42.9,0.4504532,0.0,1,0,0,3.8905928,3.0234225,false,0.0
23306,-0.010253906,-0.021484375,-1.0366211,0.012770702,0.1979459,0.029798305,183.0,39.300003,-18.900002,42.9,0.4504532,0.0,1,0,0,3.8905928,3.0234225,false,0.0
23306,-0.010253906,-0.021484375,-1.0366211,0.012770702,0.1979459,0.029798305,183.0,39.300003,-18.900002,42.9,0.4504532,0.0,1,0,0,3.8905928,3.0234225,false,0.0
23306,-0.010253906,-0.021484375,-1.0366211,0.012770702,0.1979459,0.029798305,183.0,39.300003,-18.900002,42.9,0.4504532,0.0,1,0,0,3.8905928,3.0234225,false,0.0
23306,-0.010253906,-0.021484375,-1.0366211,0.012770702,0.1979459,0.029798305,183.0,39.300003,-18.900002,42.9,0.4504532,0.0,1,0,0,3.8905928,3.0234225,false,0.0
23306,-0.010253906,-0.021484375,-1.0366211,0.012770702,0.1979459,0.029798305,183.0,39.300003,-18.900002,42.9,0.4504532,0.0,1,0,0,3.8905928,3.0234225,false,0.0
23306,-0.010253906,-0.021484375,-1.0366211,0.012770702,0.1979459,0.029798305,183.0,39.300003,-18.900002,42.9,0.4504532,0.0,1,0,0,3.8905928,3.0234225,false,0.0
23306,-0.010253906,-0.021484375,-1.0366211,0.012770702,0.1979459,0.029798305,183.0,39.300003,-18.900002,42.9,0.4504532,0.0,1,0,0,3.8905928,3.0234225,false,0.0
23306,-0.013671875,-0.023925781,-1.0336914,0.015963377,0.19688165,0.031926755,180.90001,40.800003,-18.900002,42.85,0.4504532,0.0,1,0,0,3.9023423,3.0234225,false,0.0
23350,-0.013671875,-0.023925781,-1.0336914,0.015963377,0.19688165,0.031926755,180.90001,40.800003,-18.900002,42.85,0.4504532,0.0,1,0,0,3.9023423,3.0234225,false,0.0
23350,-0.013671875,-0.023925781,-1.0336914,0.015963377,0.19688165,0.031926755,180.90001,40.800003,-18.900002,42.85,0.4504532,0.0,1,0,0,3.9023423,3.0234225,false,0.0
23350,-0.013671875,-0.023925781,-1.0336914,0.015963377,0.19688165,0.031926755,180.90001,40.800003,-18.900002,42.85,0.4504532,0.0,1,0,0,3.9023423,3.0234225,false,0.0
23350,-0.013671875,-0.023925781,-1.0336914,0.015963377,0.19688165,0.031926755,180.90001,40.800003,-18.900002,42.85,0.4504532,0.0,1,0,0,3.9023423,3.0234225,false,0.0
23350,-0.013671875,-0.023925781,-1.0336914,0.015963377,0.19688165,0.031926755,180.90001,40.800003,-18.900002,42.85,0.4504532,0.0,1,0,0,3.9023423,3.0234225,false,0.0
23350,-0.013671875,-0.023925781,-1.0336914,0.015963377,0.19688165,0.031926755,180.90001,40.800003,-18.900002,42.85,0.4504532,0.0,1,0,0,3.9023423,3.0234225,false,0.0
23350,-0.013671875,-0.023925781,-1.0336914,0.015963377,0.19688165,0.031926755,180.90001,40.800003,-18.900002,42.85,0.4504532,0.0,1,0,0,3.9023423,3.0234225,false,0.0
23350,-0.013671875,-0.023925781,-1.0336914,0.015963377,0.19688165,0.031926755,180.90001,40.800003,-18.900002,42.85,0.4504532,0.0,1,0,0,3.9023423,3.0234225,false,0.0
23350,-0.013671875,-0.023925781,-1.0336914,0.015963377,0.19688165,0.031926755,180.90001,40.800003,-18.900002,42.85,0.4504532,0.0,1,0,0,3.9023423,3.0234225,false,0.0
23350,-0.013671875,-0.023925781,-1.0336914,0.015963377,0.19688165,0.031926755,180.90001,40.800003,-18.900002,42.85,0.4504532,0.0,1,0,0,3.9023423,3.0234225,false,0.0
23351,-0.013671875,-0.023925781,-1.0336914,0.015963377,0.19688165,0.031926755,180.90001,40.800003,-18.900002,42.85,0.4504532,0.0,1,0,0,3.9023423,3.0234225,false,0.0
23351,-0.013671875,-0.023925781,-1.0336914,0.015963377,0.19688165,0.031926755,180.90001,40.800003,-18.900002,42.85,0.4504532,0.0,1,0,0,3.9023423,3.0234225,false,0.0
23351,-0.013671875,-0.023925781,-1.0336914,0.015963377,0.19688165,0.031926755,180.90001,40.800003,-18.900002,42.85,0.4504532,0.0,1,0,0,3.9023423,3.0234225,false,0.0
23351,-0.013671875,-0.023925781,-1.0336914,0.015963377,0.19688165,0.031926755,180.90001,40.800003,-18.900002,42.85,0.4504532,0.0,1,0,0,3.9023423,3.0234225,false,0.0
23351,-0.013671875,-0.023925781,-1.0336914,0.015963377,0.19688165,0.031926755,180.90001,40.800003,-18.900002,42.85,0.4504532,0.0,1,0,0,3.9023423,3.0234225,false,0.0
23351,-0.013671875,-0.023925781,-1.0336914,0.015963377,0.19688165,0.031926755,180.90001,40.800003,-18.900002,42.85,0.4504532,0.0,1,0,0,3.9023423,3.0234225,false,0.0
23351,-0.013671875,-0.023925781,-1.0336914,0.015963377,0.19688165,0.031926755,180.90001,40.800003,-18.900002,42.85,0.4504532,0.0,1,0,0,3.9023423,3.0234225,false,0.0
23351,-0.013671875,-0.023925781,-1.0336914,0.015963377,0.19688165,0.031926755,180.90001,40.800003,-18.900002,42.85,0.4504532,0.0,1,0,0,3.9023423,3.0234225,false,0.0
23351,-0.013671875,-0.023925781,-1.0336914,0.015963377,0.19688165,0.031926755,180.90001,40.800003,-18.900002,42.85,0.4504532,0.0,1,0,0,3.9023423,3.0234225,false,0.0
23351,-0.013671875,-0.023925781,-1.0336914,0.015963377,0.19688165,0.031926755,180.90001,40.800003,-18.900002,42.85,0.4504532,0.0,1,0,0,3.9023423,3.0234225,false,0.0
23351,-0.013671875,-0.023925781,-1.0336914,0.015963377,0.19688165,0.031926755,180.90001,40.800003,-18.900002,42.85,0.4504532,0.0,1,0,0,3.9023423,3.0234225,false,0.0
23351,-0.013671875,-0.023925781,-1.0336914,0.015963377,0.19688165,0.031926755,180.90001,40.800003,-18.900002,42.85,0.4504532,0.0,1,0,0,3.9023423,3.0234225,false,0.0
23351,-0.013671875,-0.023925781,-1.0336914,0.015963377,0.19688165,0.031926755,180.90001,40.800003,-18.900002,42.85,0.4504532,0.0,1,0,0,3.9023423,3.0234225,false,0.0
23351,-0.013671875,-0.023925781,-1.0336914,0.015963377,0.19688165,0.031926755,180.90001,40.800003,-18.900002,42.85,0.4504532,0.0,1,0,0,3.9023423,3.0234225,false,0.0
23351,-0.013671875,-0.023925781,-1.0336914,0.015963377,0.19688165,0.031926755,180.90001,40.800003,-18.900002,42.85,0.4504532,0.0,1,0,0,3.9023423,3.0234225,false,0.0
23351,-0.013671875,-0.023925781,-1.0336914,0.015963377,0.19688165,0.031926755,180.90001,40.800003,-18.900002,42.85,0.4504532,0.0,1,0,0,3.9023423,3.0234225,false,0.0
23351,-0.013671875,-0.023925781,-1.0336914,0.015963377,0.19688165,0.031926755,180.90001,40.800003,-18.900002,42.85,0.4504532,0.0,1,0,0,3.9023423,3.0234225,false,0.0
23351,-0.013671875,-0.023925781,-1.0336914,0.015963377,0.19688165,0.031926755,180.90001,40.800003,-18.900002,42.85,0.4504532,0.0,1,0,0,3.9023423,3.0234225,false,0.0
23351,-0.013671875,-0.023925781,-1.0336914,0.015963377,0.19688165,0.031926755,180.90001,40.800003,-18.900002,42.85,0.4504532,0.0,1,0,0,3.9023423,3.0234225,false,0.0
23351,-0.013671875,-0.023925781,-1.0336914,0.015963377,0.19688165,0.031926755,180.90001,40.800003,-18.900002,42.85,0.4504532,0.0,1,0,0,3.9023423,3.0234225,false,0.0
23352,-0.013671875,-0.023925781,-1.0336914,0.015963377,0.19688165,0.031926755,180.90001,40.800003,-18.900002,42.85,0.4504532,0.0,1,0,0,3.9023423,3.0234225,false,0.0
23352,-0.013671875,-0.023925781,-1.0336914,0.015963377,0.19688165,0.031926755,180.90001,40.800003,-18.900002,42.85,0.4504532,0.0,1,0,0,3.9023423,3.0234225,false,0.0
23352,-0.013671875,-0.023925781,-1.0336914,0.015963377,0.19688165,0.031926755,180.90001,40.800003,-18.900002,42.85,0.4504532,0.0,1,0,0,3.9023423,3.0234225,false,0.0
23352,-0.013671875,-0.023925781,-1.0336914,0.015963377,0.19688165,0.031926755,180.90001,40.800003,-18.900002,42.85,0.4504532,0.0,1,0,0,3.9023423,3.0234225,false,0.0
23352,-0.013671875,-0.023925781,-1.0336914,0.015963377,0.19688165,0.031926755,180.90001,40.800003,-18.900002,42.85,0.4504532,0.0,1,0,0,3.9023423,3.0234225,false,0.0
23352,-0.013671875,-0.023925781,-1.0336914,0.015963377,0.19688165,0.031926755,180.90001,40.800003,-18.900002,42.85,0.4504532,0.0,1,0,0,3.9023423,3.0234225,false,0.0
23352,-0.013671875,-0.023925781,-1.0336914,0.015963377,0.19688165,0.031926755,180.90001,40.800003,-18.900002,42.85,0.4504532,0.0,1,0,0,3.9023423,3.0234225,false,0.0
23352,-0.013671875,-0.023925781,-1.0336914,0.015963377,0.19688165,0.031926755,180.90001,40.800003,-18.900002,42.85,0.4504532,0.0,1,0,0,3.9023423,3.0234225,false,0.0
23352,-0.013671875,-0.023925781,-1.0336914,0.015963377,0.19688165,0.031926755,180.90001,40.800003,-18.900002,42.85,0.4504532,0.0,1,0,0,3.9023423,3.0234225,false,0.0
23352,-0.013671875,-0.023925781,-1.0336914,0.015963377,0.19688165,0.031926755,180.90001,40.800003,-18.900002,42.85,0.4504532,0.0,1,0,0,3.9023423,3.0234225,false,0.0
23352,-0.013671875,-0.023925781,-1.0336914,0.015963377,0.19688165,0.031926755,180.90001,40.800003,-18.900002,42.85,0.4504532,0.0,1,0,0,3.9023423,3.0234225,false,0.0
23352,-0.013671875,-0.023925781,-1.0336914,0.015963377,0.19688165,0.031926755,180.90001,40.800003,-18.900002,42.85,0.4504532,0.0,1,0,0,3.9023423,3.0234225,false,0.0
23352,-0.010253906,-0.023925781,-1.0380859,0.011706477,0.1979459,0.029798305,180.90001,38.7,-18.300001,42.89118,0.4504532,0.0,1,0,0,3.9023423,3.0116732,false,0.0
23398,-0.010253906,-0.023925781,-1.0380859,0.011706477,0.1979459,0.029798305,180.90001,38.7,-18.300001,42.89118,0.4504532,0.0,1,0,0,3.9023423,3.0116732,false,0.0
23409,-0.010253906,-0.023925781,-1.0380859,0.011706477,0.1979459,0.029798305,180.90001,38.7,-18.300001,42.89118,0.4504532,0.0,1,0,0,3.9023423,3.0116732,false,0.0
23409,-0.010253906,-0.023925781,-1.0380859,0.011706477,0.1979459,0.029798305,180.90001,38.7,-18.300001,42.89118,0.4504532,0.0,1,0,0,3.9023423,3.0116732,false,0.0
23409,-0.010253906,-0.023925781,-1.0380859,0.011706477,0.1979459,0.029798305,180.90001,38.7,-18.300001,42.89118,0.4504532,0.0,1,0,0,3.9023423,3.0116732,false,0.0
23409,-0.010253906,-0.023925781,-1.0380859,0.011706477,0.1979459,0.029798305,180.90001,38.7,-18.300001,42.89118,0.4504532,0.0,1,0,0,3.9023423,3.0116732,false,0.0
23409,-0.010253906,-0.023925781,-1.0380859,0.011706477,0.1979459,0.029798305,180.90001,38.7,-18.300001,42.89118,0.4504532,0.0,1,0,0,3.9023423,3.0116732,false,0.0
23409,-0.010253906,-0.023925781,-1.0380859,0.011706477,0.1979459,0.029798305,180.90001,38.7,-18.300001,42.89118,0.4504532,0.0,1,0,0,3.9023423,3.0116732,false,0.0
23409,-0.010253906,-0.023925781,-1.0380859,0.011706477,0.1979459,0.029798305,180.90001,38.7,-18.300001,42.89118,0.4504532,0.0,1,0,0,3.9023423,3.0116732,false,0.0
23409,-0.010253906,-0.023925781,-1.0380859,0.011706477,0.1979459,0.029798305,180.90001,38.7,-18.300001,42.89118,0.4504532,0.0,1,0,0,3.9023423,3.0116732,false,0.0
23409,-0.010253906,-0.023925781,-1.0380859,0.011706477,0.1979459,0.029798305,180.90001,38.7,-18.300001,42.89118,0.4504532,0.0,1,0,0,3.9023423,3.0116732,false,0.0
23409,-0.010253906,-0.023925781,-1.0380859,0.011706477,0.1979459,0.029798305,180.90001,38.7,-18.300001,42.89118,0.4504532,0.0,1,0,0,3.9023423,3.0116732,false,0.0
23409,-0.010253906,-0.023925781,-1.0380859,0.011706477,0.1979459,0.029798305,180.90001,38.7,-18.300001,42.89118,0.4504532,0.0,1,0,0,3.9023423,3.0116732,false,0.0
23409,-0.010253906,-0.023925781,-1.0380859,0.011706477,0.1979459,0.029798305,180.90001,38.7,-18.300001,42.89118,0.4504532,0.0,1,0,0,3.9023423,3.0116732,false,0.0
23409,-0.010253906,-0.023925781,-1.0380859,0.011706477,0.1979459,0.029798305,180.90001,38.7,-18.300001,42.89118,0.4504532,0.0,1,0,0,3.9023423,3.0116732,false,0.0
23409,-0.010253906,-0.023925781,-1.0380859,0.011706477,0.1979459,0.029798305,180.90001,38.7,-18.300001,42.89118,0.4504532,0.0,1,0,0,3.9023423,3.0116732,false,0.0
23409,-0.010253906,-0.023925781,-1.0380859,0.011706477,0.1979459,0.029798305,180.90001,38.7,-18.300001,42.89118,0.4504532,0.0,1,0,0,3.9023423,3.0116732,false,0.0
23409,-0.010253906,-0.023925781,-1.0380859,0.011706477,0.1979459,0.029798305,180.90001,38.7,-18.300001,42.89118,0.4504532,0.0,1,0,0,3.9023423,3.0116732,false,0.0
23409,-0.010253906,-0.023925781,-1.0380859,0.011706477,0.1979459,0.029798305,180.90001,38.7,-18.300001,42.89118,0.4504532,0.0,1,0,0,3.9023423,3.0116732,false,0.0
23409,-0.010253906,-0.023925781,-1.0380859,0.011706477,0.1979459,0.029798305,180.90001,38.7,-18.300001,42.89118,0.4504532,0.0,1,0,0,3.9023423,3.0116732,false,0.0
23409,-0.010253906,-0.023925781,-1.0380859,0.011706477,0.1979459,0.029798305,180.90001,38.7,-18.300001,42.89118,0.4504532,0.0,1,0,0,3.9023423,3.0116732,false,0.0
23409,-0.010253906,-0.023925781,-1.0380859,0.011706477,0.1979459,0.029798305,180.90001,38.7,-18.300001,42.89118,0.4504532,0.0,1,0,0,3.9023423,3.0116732,false,0.0
23409,-0.010253906,-0.023925781,-1.0380859,0.011706477,0.1979459,0.029798305,180.90001,38.7,-18.300001,42.89118,0.4504532,0.0,1,0,0,3.9023423,3.0116732,false,0.0
23409,-0.010253906,-0.023925781,-1.0380859,0.011706477,0.1979459,0.029798305,180.90001,38.7,-18.300001,42.89118,0.4504532,0.0,1,0,0,3.9023423,3.0116732,false,0.0
23409,-0.010253906,-0.023925781,-1.0380859,0.011706477,0.1979459,0.029798305,180.90001,38.7,-18.300001,42.89118,0.4504532,0.0,1,0,0,3.9023423,3.0116732,false,0.0
23409,-0.010253906,-0.023925781,-1.0380859,0.011706477,0.1979459,0.029798305,180.90001,38.7,-18.300001,42.89118,0.4504532,0.0,1,0,0,3.9023423,3.0116732,false,0.0
23409,-0.010253906,-0.023925781,-1.0380859,0.011706477,0.1979459,0.029798305,180.90001,38.7,-18.300001,42.89118,0.4504532,0.0,1,0,0,3.9023423,3.0116732,false,0.0
23409,-0.010253906,-0.023925781,-1.0380859,0.011706477,0.1979459,0.029798305,180.90001,38.7,-18.300001,42.89118,0.4504532,0.0,1,0,0,3.9023423,3.0116732,false,0.0
23409,-0.010253906,-0.023925781,-1.0380859,0.011706477,0.1979459,0.029798305,180.90001,38.7,-18.300001,42.89118,0.4504532,0.0,1,0,0,3.9023423,3.0116732,false,0.0
23409,-0.010253906,-0.023925781,-1.0380859,0.011706477,0.1979459,0.029798305,180.90001,38.7,-18.300001,42.89118,0.4504532,0.0,1,0,0,3.9023423,3.0116732,false,0.0
23409,-0.010253906,-0.023925781,-1.0380859,0.011706477,0.1979459,0.029798305,180.90001,38.7,-18.300001,42.89118,0.4504532,0.0,1,0,0,3.9023423,3.0116732,false,0.0
23409,-0.010253906,-0.023925781,-1.0380859,0.011706477,0.1979459,0.029798305,180.90001,38.7,-18.300001,42.89118,0.4504532,0.0,1,0,0,3.9023423,3.0116732,false,0.0
23410,-0.010253906,-0.023925781,-1.0380859,0.011706477,0.1979459,0.029798305,180.90001,38.7,-18.300001,42.89118,0.4504532,0.0,1,0,0,3.9023423,3.0116732,false,0.0
23410,-0.010253906,-0.023925781,-1.0380859,0.011706477,0.1979459,0.029798305,180.90001,38.7,-18.300001,42.89118,0.4504532,0.0,1,0,0,3.9023423,3.0116732,false,0.0
23410,-0.010253906,-0.023925781,-1.0380859,0.011706477,0.1979459,0.029798305,180.90001,38.7,-18.300001,42.89118,0.4504532,0.0,1,0,0,3.9023423,3.0116732,false,0.0
23410,-0.010253906,-0.023925781,-1.0380859,0.011706477,0.1979459,0.029798305,180.90001,38.7,-18.300001,42.89118,0.4504532,0.0,1,0,0,3.9023423,3.0116732,false,0.0
23410,-0.010253906,-0.023925781,-1.0380859,0.011706477,0.1979459,0.029798305,180.90001,38.7,-18.300001,42.89118,0.4504532,0.0,1,0,0,3.9023423,3.0116732,false,0.0
23410,-0.010253906,-0.023925781,-1.0380859,0.011706477,0.1979459,0.029798305,180.90001,38.7,-18.300001,42.89118,0.4504532,0.0,1,0,0,3.9023423,3.0116732,false,0.0
23410,-0.010253906,-0.023925781,-1.0380859,0.011706477,0.1979459,0.029798305,180.90001,38.7,-18.300001,42.89118,0.4504532,0.0,1,0,0,3.9023423,3.0116732,false,0.0
23410,-0.010253906,-0.023925781,-1.0380859,0.011706477,0.1979459,0.029798305,180.90001,38.7,-18.300001,42.89118,0.4504532,0.0,1,0,0,3.9023423,3.0116732,false,0.0
23410,-0.010253906,-0.023925781,-1.0380859,0.011706477,0.1979459,0.029798305,180.90001,38.7,-18.300001,42.89118,0.4504532,0.0,1,0,0,3.9023423,3.0116732,false,0.0
23410,-0.010253906,-0.023925781,-1.0380859,0.011706477,0.1979459,0.029798305,180.90001,38.7,-18.300001,42.89118,0.4504532,0.0,1,0,0,3.9023423,3.0116732,false,0.0
23410,-0.010253906,-0.023925781,-1.0380859,0.011706477,0.1979459,0.029798305,180.90001,38.7,-18.300001,42.89118,0.4504532,0.0,1,0,0,3.9023423,3.0116732,false,0.0
23410,-0.0087890625,-0.025878906,-1.0327148,0.011706477,0.19581743,0.030862529,183.3,39.600002,-19.2,42.87941,0.4504532,0.0,1,0,0,3.8964674,3.0175478,false,0.0
23459,-0.0087890625,-0.025878906,-1.0327148,0.011706477,0.19581743,0.030862529,183.3,39.600002,-19.2,42.87941,0.4504532,0.0,1,0,0,3.8964674,3.0175478,false,0.0
23459,-0.0087890625,-0.025878906,-1.0327148,0.011706477,0.19581743,0.030862529,183.3,39.600002,-19.2,42.87941,0.4504532,0.0,1,0,0,3.8964674,3.0175478,false,0.0
23459,-0.0087890625,-0.025878906,-1.0327148,0.011706477,0.19581743,0.030862529,183.3,39.600002,-19.2,42.87941,0.4504532,0.0,1,0,0,3.8964674,3.0175478,false,0.0
23459,-0.0087890625,-0.025878906,-1.0327148,0.011706477,0.19581743,0.030862529,183.3,39.600002,-19.2,42.87941,0.4504532,0.0,1,0,0,3.8964674,3.0175478,false,0.0
23459,-0.0087890625,-0.025878906,-1.0327148,0.011706477,0.19581743,0.030862529,183.3,39.600002,-19.2,42.87941,0.4504532,0.0,1,0,0,3.8964674,3.0175478,false,0.0
23459,-0.0087890625,-0.025878906,-1.0327148,0.011706477,0.19581743,0.030862529,183.3,39.600002,-19.2,42.87941,0.4504532,0.0,1,0,0,3.8964674,3.0175478,false,0.0
23459,-0.0087890625,-0.025878906,-1.0327148,0.011706477,0.19581743,0.030862529,183.3,39.600002,-19.2,42.87941,0.4504532,0.0,1,0,0,3.8964674,3.0175478,false,0.0
23459,-0.0087890625,-0.025878906,-1.0327148,0.011706477,0.19581743,0.030862529,183.3,39.600002,-19.2,42.87941,0.4504532,0.0,1,0,0,3.8964674,3.0175478,false,0.0
23459,-0.0087890625,-0.025878906,-1.0327148,0.011706477,0.19581743,0.030862529,183.3,39.600002,-19.2,42.87941,0.4504532,0.0,1,0,0,3.8964674,3.0175478,false,0.0
23459,-0.0087890625,-0.025878906,-1.0327148,0.011706477,0.19581743,0.030862529,183.3,39.600002,-19.2,42.87941,0.4504532,0.0,1,0,0,3.8964674,3.0175478,false,0.0
23459,-0.0087890625,-0.025878906,-1.0327148,0.011706477,0.19581743,0.030862529,183.3,39.600002,-19.2,42.87941,0.4504532,0.0,1,0,0,3.8964674,3.0175478,false,0.0
23459,-0.0087890625,-0.025878906,-1.0327148,0.011706477,0.19581743,0.030862529,183.3,39.600002,-19.2,42.87941,0.4504532,0.0,1,0,0,3.8964674,3.0175478,false,0.0
23459,-0.0087890625,-0.025878906,-1.0327148,0.011706477,0.19581743,0.030862529,183.3,39.600002,-19.2,42.87941,0.4504532,0.0,1,0,0,3.8964674,3.0175478,false,0.0
23459,-0.0087890625,-0.025878906,-1.0327148,0.011706477,0.19581743,0.030862529,183.3,39.600002,-19.2,42.87941,0.4504532,0.0,1,0,0,3.8964674,3.0175478,false,0.0
23460,-0.0087890625,-0.025878906,-1.0327148,0.011706477,0.19581743,0.030862529,183.3,39.600002,-19.2,42.87941,0.4504532,0.0,1,0,0,3.8964674,3.0175478,false,0.0
23460,-0.0087890625,-0.025878906,-1.0327148,0.011706477,0.19581743,0.030862529,183.3,39.600002,-19.2,42.87941,0.4504532,0.0,1,0,0,3.8964674,3.0175478,false,0.0
23460,-0.0087890625,-0.025878906,-1.0327148,0.011706477,0.19581743,0.030862529,183.3,39.600002,-19.2,42.87941,0.4504532,0.0,1,0,0,3.8964674,3.0175478,false,0.0
23460,-0.0087890625,-0.025878906,-1.0327148,0.011706477,0.19581743,0.030862529,183.3,39.600002,-19.2,42.87941,0.4504532,0.0,1,0,0,3.8964674,3.0175478,false,0.0
23460,-0.0087890625,-0.025878906,-1.0327148,0.011706477,0.19581743,0.030862529,183.3,39.600002,-19.2,42.87941,0.4504532,0.0,1,0,0,3.8964674,3.0175478,false,0.0
23460,-0.0087890625,-0.025878906,-1.0327148,0.011706477,0.19581743,0.030862529,183.3,39.600002,-19.2,42.87941,0.4504532,0.0,1,0,0,3.8964674,3.0175478,false,0.0
23460,-0.0087890625,-0.025878906,-1.0327148,0.011706477,0.19581743,0.030862529,183.3,39.600002,-19.2,42.87941,0.4504532,0.0,1,0,0,3.8964674,3.0175478,false,0.0
23460,-0.0087890625,-0.025878906,-1.0327148,0.011706477,0.19581743,0.030862529,183.3,39.600002,-19.2,42.87941,0.4504532,0.0,1,0,0,3.8964674,3.0175478,false,0.0
23460,-0.0087890625,-0.025878906,-1.0327148,0.011706477,0.19581743,0.030862529,183.3,39.600002,-19.2,42.87941,0.4504532,0.0,1,0,0,3.8964674,3.0175478,false,0.0
23460,-0.0087890625,-0.025878906,-1.0327148,0.011706477,0.19581743,0.030862529,183.3,39.600002,-19.2,42.87941,0.4504532,0.0,1,0,0,3.8964674,3.0175478,false,0.0
23460,-0.0087890625,-0.025878906,-1.0327148,0.011706477,0.19581743,0.030862529,183.3,39.600002,-19.2,42.87941,0.4504532,0.0,1,0,0,3.8964674,3.0175478,false,0.0
23460,-0.0087890625,-0.025878906,-1.0327148,0.011706477,0.19581743,0.030862529,183.3,39.600002,-19.2,42.87941,0.4504532,0.0,1,0,0,3.8964674,3.0175478,false,0.0
23460,-0.0087890625,-0.025878906,-1.0327148,0.011706477,0.19581743,0.030862529,183.3,39.600002,-19.2,42.87941,0.4504532,0.0,1,0,0,3.8964674,3.0175478,false,0.0
23460,-0.0087890625,-0.025878906,-1.0327148,0.011706477,0.19581743,0.030862529,183.3,39.600002,-19.2,42.87941,0.4504532,0.0,1,0,0,3.8964674,3.0175478,false,0.0
23460,-0.0087890625,-0.025878906,-1.0327148,0.011706477,0.19581743,0.030862529,183.3,39.600002,-19.2,42.87941,0.4504532,0.0,1,0,0,3.8964674,3.0175478,false,0.0
23460,-0.0087890625,-0.025878906,-1.0327148,0.011706477,0.19581743,0.030862529,183.3,39.600002,-19.2,42.87941,0.4504532,0.0,1,0,0,3.8964674,3.0175478,false,0.0
23460,-0.0087890625,-0.025878906,-1.0327148,0.011706477,0.19581743,0.030862529,183.3,39.600002,-19.2,42.87941,0.4504532,0.0,1,0,0,3.8964674,3.0175478,false,0.0
23460,-0.0087890625,-0.025878906,-1.0327148,0.011706477,0.19581743,0.030862529,183.3,39.600002,-19.2,42.87941,0.4504532,0.0,1,0,0,3.8964674,3.0175478,false,0.0
23460,-0.0087890625,-0.025878906,-1.0327148,0.011706477,0.19581743,0.030862529,183.3,39.600002,-19.2,42.87941,0.4504532,0.0,1,0,0,3.8964674,3.0175478,false,0.0
23460,-0.0087890625,-0.025878906,-1.0327148,0.011706477,0.19581743,0.030862529,183.3,39.600002,-19.2,42.87941,0.4504532,0.0,1,0,0,3.8964674,3.0175478,false,0.0
23460,-0.0087890625,-0.025878906,-1.0327148,0.011706477,0.19581743,0.030862529,183.3,39.600002,-19.2,42.87941,0.4504532,0.0,1,0,0,3.8964674,3.0175478,false,0.0
23460,-0.0087890625,-0.025878906,-1.0327148,0.011706477,0.19581743,0.030862529,183.3,39.600002,-19.2,42.87941,0.4504532,0.0,1,0,0,3.8964674,3.0175478,false,0.0
23460,-0.0087890625,-0.025878906,-1.0327148,0.011706477,0.19581743,0.030862529,183.3,39.600002,-19.2,42.87941,0.4504532,0.0,1,0,0,3.8964674,3.0175478,false,0.0
23460,-0.0087890625,-0.025878906,-1.0327148,0.011706477,0.19581743,0.030862529,183.3,39.600002,-19.2,42.87941,0.4504532,0.0,1,0,0,3.8964674,3.0175478,false,0.0
23460,-0.0087890625,-0.025878906,-1.0327148,0.011706477,0.19581743,0.030862529,183.3,39.600002,-19.2,42.87941,0.4504532,0.0,1,0,0,3.8964674,3.0175478,false,0.0
23460,-0.0087890625,-0.025878906,-1.0327148,0.011706477,0.19581743,0.030862529,183.3,39.600002,-19.2,42.87941,0.4504532,0.0,1,0,0,3.8964674,3.0175478,false,0.0
23460,-0.0087890625,-0.025878906,-1.0327148,0.011706477,0.19581743,0.030862529,183.3,39.600002,-19.2,42.87941,0.4504532,0.0,1,0,0,3.8964674,3.0175478,false,0.0
23460,-0.0087890625,-0.025878906,-1.0327148,0.011706477,0.19581743,0.030862529,183.3,39.600002,-19.2,42.87941,0.4504532,0.0,1,0,0,3.8964674,3.0175478,false,0.0
23460,-0.0126953125,-0.0234375,-1.0322266,0.013834927,0.1990101,0.030862529,182.40001,40.800003,-18.900002,42.876472,0.4504532,0.0,1,0,0,3.9023423,3.0116732,false,0.0
23509,-0.0126953125,-0.0234375,-1.0322266,0.013834927,0.1990101,0.030862529,182.40001,40.800003,-18.900002,42.876472,0.4504532,0.0,1,0,0,3.9023423,3.0116732,false,0.0
23509,-0.0126953125,-0.0234375,-1.0322266,0.013834927,0.1990101,0.030862529,182.40001,40.800003,-18.900002,42.876472,0.4504532,0.0,1,0,0,3.9023423,3.0116732,false,0.0
23509,-0.0126953125,-0.0234375,-1.0322266,0.013834927,0.1990101,0.030862529,182.40001,40.800003,-18.900002,42.876472,0.4504532,0.0,1,0,0,3.9023423,3.0116732,false,0.0
23509,-0.0126953125,-0.0234375,-1.0322266,0.013834927,0.1990101,0.030862529,182.40001,40.800003,-18.900002,42.876472,0.4504532,0.0,1,0,0,3.9023423,3.0116732,false,0.0
23509,-0.0126953125,-0.0234375,-1.0322266,0.013834927,0.1990101,0.030862529,182.40001,40.800003,-18.900002,42.876472,0.4504532,0.0,1,0,0,3.9023423,3.0116732,false,0.0
23509,-0.0126953125,-0.0234375,-1.0322266,0.013834927,0.1990101,0.030862529,182.40001,40.800003,-18.900002,42.876472,0.4504532,0.0,1,0,0,3.9023423,3.0116732,false,0.0
23509,-0.0126953125,-0.0234375,-1.0322266,0.013834927,0.1990101,0.030862529,182.40001,40.800003,-18.900002,42.876472,0.4504532,0.0,1,0,0,3.9023423,3.0116732,false,0.0
23509,-0.0126953125,-0.0234375,-1.0322266,0.013834927,0.1990101,0.030862529,182.40001,40.800003,-18.900002,42.876472,0.4504532,0.0,1,0,0,3.9023423,3.0116732,false,0.0
23509,-0.0126953125,-0.0234375,-1.0322266,0.013834927,0.1990101,0.030862529,182.40001,40.800003,-18.900002,42.876472,0.4504532,0.0,1,0,0,3.9023423,3.0116732,false,0.0
23509,-0.0126953125,-0.0234375,-1.0322266,0.013834927,0.1990101,0.030862529,182.40001,40.800003,-18.900002,42.876472,0.4504532,0.0,1,0,0,3.9023423,3.0116732,false,0.0
23509,-0.0126953125,-0.0234375,-1.0322266,0.013834927,0.1990101,0.030862529,182.40001,40.800003,-18.900002,42.876472,0.4504532,0.0,1,0,0,3.9023423,3.0116732,false,0.0
23510,-0.0126953125,-0.0234375,-1.0322266,0.013834927,0.1990101,0.030862529,182.40001,40.800003,-18.900002,42.876472,0.4504532,0.0,1,0,0,3.9023423,3.0116732,false,0.0
23510,-0.0126953125,-0.0234375,-1.0322266,0.013834927,0.1990101,0.030862529,182.40001,40.800003,-18.900002,42.876472,0.4504532,0.0,1,0,0,3.9023423,3.0116732,false,0.0
23510,-0.0126953125,-0.0234375,-1.0322266,0.013834927,0.1990101,0.030862529,182.40001,40.800003,-18.900002,42.876472,0.4504532,0.0,1,0,0,3.9023423,3.0116732,false,0.0
23510,-0.0126953125,-0.0234375,-1.0322266,0.013834927,0.1990101,0.030862529,182.40001,40.800003,-18.900002,42.876472,0.4504532,0.0,1,0,0,3.9023423,3.0116732,false,0.0
23510,-0.0126953125,-0.0234375,-1.0322266,0.013834927,0.1990101,0.030862529,182.40001,40.800003,-18.900002,42.876472,0.4504532,0.0,1,0,0,3.9023423,3.0116732,false,0.0
23510,-0.0126953125,-0.0234375,-1.0322266,0.013834927,0.1990101,0.030862529,182.40001,40.800003,-18.900002,42.876472,0.4504532,0.0,1,0,0,3.9023423,3.0116732,false,0.0
23510,-0.0126953125,-0.0234375,-1.0322266,0.013834927,0.1990101,0.030862529,182.40001,40.800003,-18.900002,42.876472,0.4504532,0.0,1,0,0,3.9023423,3.0116732,false,0.0
23510,-0.0126953125,-0.0234375,-1.0322266,0.013834927,0.1990101,0.030862529,182.40001,40.800003,-18.900002,42.876472,0.4504532,0.0,1,0,0,3.9023423,3.0116732,false,0.0
23510,-0.0126953125,-0.0234375,-1.0322266,0.013834927,0.1990101,0.030862529,182.40001,40.800003,-18.900002,42.876472,0.4504532,0.0,1,0,0,3.9023423,3.0116732,false,0.0
23510,-0.0126953125,-0.0234375,-1.0322266,0.013834927,0.1990101,0.030862529,182.40001,40.800003,-18.900002,42.876472,0.4504532,0.0,1,0,0,3.9023423,3.0116732,false,0.0
23510,-0.0126953125,-0.0234375,-1.0322266,0.013834927,0.1990101,0.030862529,182.40001,40.800003,-18.900002,42.876472,0.4504532,0.0,1,0,0,3.9023423,3.0116732,false,0.0
23510,-0.0126953125,-0.0234375,-1.0322266,0.013834927,0.1990101,0.030862529,182.40001,40.800003,-18.900002,42.876472,0.4504532,0.0,1,0,0,3.9023423,3.0116732,false,0.0
23510,-0.0126953125,-0.0234375,-1.0322266,0.013834927,0.1990101,0.030862529,182.40001,40.800003,-18.900002,42.876472,0.4504532,0.0,1,0,0,3.9023423,3.0116732,false,0.0
23510,-0.0126953125,-0.0234375,-1.0322266,0.013834927,0.1990101,0.030862529,182.40001,40.800003,-18.900002,42.876472,0.4504532,0.0,1,0,0,3.9023423,3.0116732,false,0.0
23510,-0.0126953125,-0.0234375,-1.0322266,0.013834927,0.1990101,0.030862529,182.40001,40.800003,-18.900002,42.876472,0.4504532,0.0,1,0,0,3.9023423,3.0116732,false,0.0
23510,-0.0126953125,-0.0234375,-1.0322266,0.013834927,0.1990101,0.030862529,182.40001,40.800003,-18.900002,42.876472,0.4504532,0.0,1,0,0,3.9023423,3.0116732,false,0.0
23510,-0.0126953125,-0.0234375,-1.0322266,0.013834927,0.1990101,0.030862529,182.40001,40.800003,-18.900002,42.876472,0.4504532,0.0,1,0,0,3.9023423,3.0116732,false,0.0
23510,-0.0126953125,-0.0234375,-1.0322266,0.013834927,0.1990101,0.030862529,182.40001,40.800003,-18.900002,42.876472,0.4504532,0.0,1,0,0,3.9023423,3.0116732,false,0.0
23510,-0.0126953125,-0.0234375,-1.0322266,0.013834927,0.1990101,0.030862529,182.40001,40.800003,-18.900002,42.876472,0.4504532,0.0,1,0,0,3.9023423,3.0116732,false,0.0
23510,-0.0126953125,-0.0234375,-1.0322266,0.013834927,0.1990101,0.030862529,182.40001,40.800003,-18.900002,42.876472,0.4504532,0.0,1,0,0,3.9023423,3.0116732,false,0.0
23510,-0.0126953125,-0.0234375,-1.0322266,0.013834927,0.1990101,0.030862529,182.40001,40.800003,-18.900002,42.876472,0.4504532,0.0,1,0,0,3.9023423,3.0116732,false,0.0
23510,-0.0126953125,-0.0234375,-1.0322266,0.013834927,0.1990101,0.030862529,182.40001,40.800003,-18.900002,42.876472,0.4504532,0.0,1,0,0,3.9023423,3.0116732,false,0.0
23511,-0.0126953125,-0.0234375,-1.0322266,0.013834927,0.1990101,0.030862529,182.40001,40.800003,-18.900002,42.876472,0.4504532,0.0,1,0,0,3.9023423,3.0116732,false,0.0
23511,-0.0126953125,-0.0234375,-1.0322266,0.013834927,0.1990101,0.030862529,182.40001,40.800003,-18.900002,42.876472,0.4504532,0.0,1,0,0,3.9023423,3.0116732,false,0.0
23511,-0.0126953125,-0.0234375,-1.0322266,0.013834927,0.1990101,0.030862529,182.40001,40.800003,-18.900002,42.876472,0.4504532,0.0,1,0,0,3.9023423,3.0116732,false,0.0
23511,-0.0126953125,-0.0234375,-1.0322266,0.013834927,0.1990101,0.030862529,182.40001,40.800003,-18.900002,42.876472,0.4504532,0.0,1,0,0,3.9023423,3.0116732,false,0.0
23511,-0.0126953125,-0.0234375,-1.0322266,0.013834927,0.1990101,0.030862529,182.40001,40.800003,-18.900002,42.876472,0.4504532,0.0,1,0,0,3.9023423,3.0116732,false,0.0
23511,-0.0126953125,-0.0234375,-1.0322266,0.013834927,0.1990101,0.030862529,182.40001,40.800003,-18.900002,42.876472,0.4504532,0.0,1,0,0,3.9023423,3.0116732,false,0.0
23511,-0.0126953125,-0.0234375,-1.0322266,0.013834927,0.1990101,0.030862529,182.40001,40.800003,-18.900002,42.876472,0.4504532,0.0,1,0,0,3.9023423,3.0116732,false,0.0
23511,-0.0126953125,-0.0234375,-1.0322266,0.013834927,0.1990101,0.030862529,182.40001,40.800003,-18.900002,42.876472,0.4504532,0.0,1,0,0,3.9023423,3.0116732,false,0.0
23511,-0.0126953125,-0.0234375,-1.0322266,0.013834927,0.1990101,0.030862529,182.40001,40.800003,-18.900002,42.876472,0.4504532,0.0,1,0,0,3.9023423,3.0116732,false,0.0
23511,-0.0107421875,-0.0234375,-1.0332031,0.010642252,0.1990101,0.031926755,184.8,40.5,-19.800001,42.888237,0.4504532,0.0,1,0,0,3.9023423,3.0116732,false,0.0
23551,-0.0107421875,-0.0234375,-1.0332031,0.010642252,0.1990101,0.031926755,184.8,40.5,-19.800001,42.888237,0.4504532,0.0,1,0,0,3.9023423,3.0116732,false,0.0
23551,-0.0107421875,-0.0234375,-1.0332031,0.010642252,0.1990101,0.031926755,184.8,40.5,-19.800001,42.888237,0.4504532,0.0,1,0,0,3.9023423,3.0116732,false,0.0
23551,-0.0107421875,-0.0234375,-1.0332031,0.010642252,0.1990101,0.031926755,184.8,40.5,-19.800001,42.888237,0.4504532,0.0,1,0,0,3.9023423,3.0116732,false,0.0
23551,-0.0107421875,-0.0234375,-1.0332031,0.010642252,0.1990101,0.031926755,184.8,40.5,-19.800001,42.888237,0.4504532,0.0,1,0,0,3.9023423,3.0116732,false,0.0
23551,-0.0107421875,-0.0234375,-1.0332031,0.010642252,0.1990101,0.031926755,184.8,40.5,-19.800001,42.888237,0.4504532,0.0,1,0,0,3.9023423,3.0116732,false,0.0
23551,-0.0107421875,-0.0234375,-1.0332031,0.010642252,0.1990101,0.031926755,184.8,40.5,-19.800001,42.888237,0.4504532,0.0,1,0,0,3.9023423,3.0116732,false,0.0
23551,-0.0107421875,-0.0234375,-1.0332031,0.010642252,0.1990101,0.031926755,184.8,40.5,-19.800001,42.888237,0.4504532,0.0,1,0,0,3.9023423,3.0116732,false,0.0
23551,-0.0107421875,-0.0234375,-1.0332031,0.010642252,0.1990101,0.031926755,184.8,40.5,-19.800001,42.888237,0.4504532,0.0,1,0,0,3.9023423,3.0116732,false,0.0
23551,-0.0107421875,-0.0234375,-1.0332031,0.010642252,0.1990101,0.031926755,184.8,40.5,-19.800001,42.888237,0.4504532,0.0,1,0,0,3.9023423,3.0116732,false,0.0
23551,-0.0107421875,-0.0234375,-1.0332031,0.010642252,0.1990101,0.031926755,184.8,40.5,-19.800001,42.888237,0.4504532,0.0,1,0,0,3.9023423,3.0116732,false,0.0
23551,-0.0107421875,-0.0234375,-1.0332031,0.010642252,0.1990101,0.031926755,184.8,40.5,-19.800001,42.888237,0.4504532,0.0,1,0,0,3.9023423,3.0116732,false,0.0
23551,-0.0107421875,-0.0234375,-1.0332031,0.010642252,0.1990101,0.031926755,184.8,40.5,-19.800001,42.888237,0.4504532,0.0,1,0,0,3.9023423,3.0116732,false,0.0
23552,-0.0107421875,-0.0234375,-1.0332031,0.010642252,0.1990101,0.031926755,184.8,40.5,-19.800001,42.888237,0.4504532,0.0,1,0,0,3.9023423,3.0116732,false,0.0
23552,-0.0107421875,-0.0234375,-1.0332031,0.010642252,0.1990101,0.031926755,184.8,40.5,-19.800001,42.888237,0.4504532,0.0,1,0,0,3.9023423,3.0116732,false,0.0
23552,-0.0107421875,-0.0234375,-1.0332031,0.010642252,0.1990101,0.031926755,184.8,40.5,-19.800001,42.888237,0.4504532,0.0,1,0,0,3.9023423,3.0116732,false,0.0
23553,-0.0107421875,-0.0234375,-1.0332031,0.010642252,0.1990101,0.031926755,184.8,40.5,-19.800001,42.888237,0.4504532,0.0,1,0,0,3.9023423,3.0116732,false,0.0
23553,-0.0107421875,-0.0234375,-1.0332031,0.010642252,0.1990101,0.031926755,184.8,40.5,-19.800001,42.888237,0.4504532,0.0,1,0,0,3.9023423,3.0116732,false,0.0
23553,-0.0107421875,-0.0234375,-1.0332031,0.010642252,0.1990101,0.031926755,184.8,40.5,-19.800001,42.888237,0.4504532,0.0,1,0,0,3.9023423,3.0116732,false,0.0
23553,-0.0107421875,-0.0234375,-1.0332031,0.010642252,0.1990101,0.031926755,184.8,40.5,-19.800001,42.888237,0.4504532,0.0,1,0,0,3.9023423,3.0116732,false,0.0
23553,-0.0107421875,-0.0234375,-1.0332031,0.010642252,0.1990101,0.031926755,184.8,40.5,-19.800001,42.888237,0.4504532,0.0,1,0,0,3.9023423,3.0116732,false,0.0
23553,-0.0107421875,-0.0234375,-1.0332031,0.010642252,0.1990101,0.031926755,184.8,40.5,-19.800001,42.888237,0.4504532,0.0,1,0,0,3.9023423,3.0116732,false,0.0
23553,-0.0107421875,-0.0234375,-1.0332031,0.010642252,0.1990101,0.031926755,184.8,40.5,-19.800001,42.888237,0.4504532,0.0,1,0,0,3.9023423,3.0116732,false,0.0
23553,-0.0107421875,-0.0234375,-1.0332031,0.010642252,0.1990101,0.031926755,184.8,40.5,-19.800001,42.888237,0.4504532,0.0,1,0,0,3.9023423,3.0116732,false,0.0
23553,-0.0107421875,-0.0234375,-1.0332031,0.010642252,0.1990101,0.031926755,184.8,40.5,-19.800001,42.888237,0.4504532,0.0,1,0,0,3.9023423,3.0116732,false,0.0
23553,-0.0107421875,-0.0234375,-1.0332031,0.010642252,0.1990101,0.031926755,184.8,40.5,-19.800001,42.888237,0.4504532,0.0,1,0,0,3.9023423,3.0116732,false,0.0
23553,-0.0107421875,-0.0234375,-1.0332031,0.010642252,0.1990101,0.031926755,184.8,40.5,-19.800001,42.888237,0.4504532,0.0,1,0,0,3.9023423,3.0116732,false,0.0
23553,-0.0107421875,-0.0234375,-1.0332031,0.010642252,0.1990101,0.031926755,184.8,40.5,-19.800001,42.888237,0.4504532,0.0,1,0,0,3.9023423,3.0116732,false,0.0
23553,-0.0107421875,-0.0234375,-1.0332031,0.010642252,0.1990101,0.031926755,184.8,40.5,-19.800001,42.888237,0.4504532,0.0,1,0,0,3.9023423,3.0116732,false,0.0
23553,-0.0107421875,-0.0234375,-1.0332031,0.010642252,0.1990101,0.031926755,184.8,40.5,-19.800001,42.888237,0.4504532,0.0,1,0,0,3.9023423,3.0116732,false,0.0
23553,-0.0107421875,-0.0234375,-1.0332031,0.010642252,0.1990101,0.031926755,184.8,40.5,-19.800001,42.888237,0.4504532,0.0,1,0,0,3.9023423,3.0116732,false,0.0
23553,-0.0107421875,-0.0234375,-1.0332031,0.010642252,0.1990101,0.031926755,184.8,40.5,-19.800001,42.888237,0.4504532,0.0,1,0,0,3.9023423,3.0116732,false,0.0
23553,-0.0107421875,-0.0234375,-1.0332031,0.010642252,0.1990101,0.031926755,184.8,40.5,-19.800001,42.888237,0.4504532,0.0,1,0,0,3.9023423,3.0116732,false,0.0
23553,-0.0107421875,-0.0234375,-1.0332031,0.010642252,0.1990101,0.031926755,184.8,40.5,-19.800001,42.888237,0.4504532,0.0,1,0,0,3.9023423,3.0116732,false,0.0
23553,-0.0107421875,-0.0234375,-1.0332031,0.010642252,0.1990101,0.031926755,184.8,40.5,-19.800001,42.888237,0.4504532,0.0,1,0,0,3.9023423,3.0116732,false,0.0
23553,-0.0107421875,-0.0234375,-1.0332031,0.010642252,0.1990101,0.031926755,184.8,40.5,-19.800001,42.888237,0.4504532,0.0,1,0,0,3.9023423,3.0116732,false,0.0
23553,-0.0107421875,-0.0234375,-1.0332031,0.010642252,0.1990101,0.031926755,184.8,40.5,-19.800001,42.888237,0.4504532,0.0,1,0,0,3.9023423,3.0116732,false,0.0
23553,-0.0107421875,-0.0234375,-1.0332031,0.010642252,0.1990101,0.031926755,184.8,40.5,-19.800001,42.888237,0.4504532,0.0,1,0,0,3.9023423,3.0116732,false,0.0
23553,-0.0107421875,-0.0234375,-1.0332031,0.010642252,0.1990101,0.031926755,184.8,40.5,-19.800001,42.888237,0.4504532,0.0,1,0,0,3.9023423,3.0116732,false,0.0
23553,-0.0107421875,-0.0234375,-1.0332031,0.010642252,0.1990101,0.031926755,184.8,40.5,-19.800001,42.888237,0.4504532,0.0,1,0,0,3.9023423,3.0116732,false,0.0
23553,-0.0107421875,-0.0234375,-1.0332031,0.010642252,0.1990101,0.031926755,184.8,40.5,-19.800001,42.888237,0.4504532,0.0,1,0,0,3.9023423,3.0116732,false,0.0
23553,-0.0107421875,-0.0234375,-1.0332031,0.010642252,0.1990101,0.031926755,184.8,40.5,-19.800001,42.888237,0.4504532,0.0,1,0,0,3.9023423,3.0116732,false,0.0
23553,-0.0107421875,-0.0234375,-1.0332031,0.010642252,0.1990101,0.031926755,184.8,40.5,-19.800001,42.888237,0.4504532,0.0,1,0,0,3.9023423,3.0116732,false,0.0
23553,-0.0068359375,-0.024902344,-1.0351562,0.012770702,0.19688165,0.030862529,182.70001,39.0,-19.2,42.867645,0.4504532,0.0,1,0,0,3.9023423,3.0116732,false,0.0
23596,-0.0068359375,-0.024902344,-1.0351562,0.012770702,0.19688165,0.030862529,182.70001,39.0,-19.2,42.867645,0.4504532,0.0,1,0,0,3.9023423,3.0116732,false,0.0
23596,-0.0068359375,-0.024902344,-1.0351562,0.012770702,0.19688165,0.030862529,182.70001,39.0,-19.2,42.867645,0.4504532,0.0,1,0,0,3.9023423,3.0116732,false,0.0
23596,-0.0068359375,-0.024902344,-1.0351562,0.012770702,0.19688165,0.030862529,182.70001,39.0,-19.2,42.867645,0.4504532,0.0,1,0,0,3.9023423,3.0116732,false,0.0
23596,-0.0068359375,-0.024902344,-1.0351562,0.012770702,0.19688165,0.030862529,182.70001,39.0,-19.2,42.867645,0.4504532,0.0,1,0,0,3.9023423,3.0116732,false,0.0
23596,-0.0068359375,-0.024902344,-1.0351562,0.012770702,0.19688165,0.030862529,182.70001,39.0,-19.2,42.867645,0.4504532,0.0,1,0,0,3.9023423,3.0116732,false,0.0
23596,-0.0068359375,-0.024902344,-1.0351562,0.012770702,0.19688165,0.030862529,182.70001,39.0,-19.2,42.867645,0.4504532,0.0,1,0,0,3.9023423,3.0116732,false,0.0
23596,-0.0068359375,-0.024902344,-1.0351562,0.012770702,0.19688165,0.030862529,182.70001,39.0,-19.2,42.867645,0.4504532,0.0,1,0,0,3.9023423,3.0116732,false,0.0
23596,-0.0068359375,-0.024902344,-1.0351562,0.012770702,0.19688165,0.030862529,182.70001,39.0,-19.2,42.867645,0.4504532,0.0,1,0,0,3.9023423,3.0116732,false,0.0
23597,-0.0068359375,-0.024902344,-1.0351562,0.012770702,0.19688165,0.030862529,182.70001,39.0,-19.2,42.867645,0.4504532,0.0,1,0,0,3.9023423,3.0116732,false,0.0
23597,-0.0068359375,-0.024902344,-1.0351562,0.012770702,0.19688165,0.030862529,182.70001,39.0,-19.2,42.867645,0.4504532,0.0,1,0,0,3.9023423,3.0116732,false,0.0
23597,-0.0068359375,-0.024902344,-1.0351562,0.012770702,0.19688165,0.030862529,182.70001,39.0,-19.2,42.867645,0.4504532,0.0,1,0,0,3.9023423,3.0116732,false,0.0
23597,-0.0068359375,-0.024902344,-1.0351562,0.012770702,0.19688165,0.030862529,182.70001,39.0,-19.2,42.867645,0.4504532,0.0,1,0,0,3.9023423,3.0116732,false,0.0
23597,-0.0068359375,-0.024902344,-1.0351562,0.012770702,0.19688165,0.030862529,182.70001,39.0,-19.2,42.867645,0.4504532,0.0,1,0,0,3.9023423,3.0116732,false,0.0
23597,-0.0068359375,-0.024902344,-1.0351562,0.012770702,0.19688165,0.030862529,182.70001,39.0,-19.2,42.867645,0.4504532,0.0,1,0,0,3.9023423,3.0116732,false,0.0
23597,-0.0068359375,-0.024902344,-1.0351562,0.012770702,0.19688165,0.030862529,182.70001,39.0,-19.2,42.867645,0.4504532,0.0,1,0,0,3.9023423,3.0116732,false,0.0
23597,-0.0068359375,-0.024902344,-1.0351562,0.012770702,0.19688165,0.030862529,182.70001,39.0,-19.2,42.867645,0.4504532,0.0,1,0,0,3.9023423,3.0116732,false,0.0
23597,-0.0068359375,-0.024902344,-1.0351562,0.012770702,0.19688165,0.030862529,182.70001,39.0,-19.2,42.867645,0.4504532,0.0,1,0,0,3.9023423,3.0116732,false,0.0
23597,-0.0068359375,-0.024902344,-1.0351562,0.012770702,0.19688165,0.030862529,182.70001,39.0,-19.2,42.867645,0.4504532,0.0,1,0,0,3.9023423,3.0116732,false,0.0
23597,-0.0068359375,-0.024902344,-1.0351562,0.012770702,0.19688165,0.030862529,182.70001,39.0,-19.2,42.867645,0.4504532,0.0,1,0,0,3.9023423,3.0116732,false,0.0
23597,-0.0068359375,-0.024902344,-1.0351562,0.012770702,0.19688165,0.030862529,182.70001,39.0,-19.2,42.867645,0.4504532,0.0,1,0,0,3.9023423,3.0116732,false,0.0
23597,-0.0068359375,-0.024902344,-1.0351562,0.012770702,0.19688165,0.030862529,182.70001,39.0,-19.2,42.867645,0.4504532,0.0,1,0,0,3.9023423,3.0116732,false,0.0
23597,-0.0068359375,-0.024902344,-1.0351562,0.012770702,0.19688165,0.030862529,182.70001,39.0,-19.2,42.867645,0.4504532,0.0,1,0,0,3.9023423,3.0116732,false,0.0
23597,-0.0068359375,-0.024902344,-1.0351562,0.012770702,0.19688165,0.030862529,182.70001,39.0,-19.2,42.867645,0.4504532,0.0,1,0,0,3.9023423,3.0116732,false,0.0
23597,-0.0068359375,-0.024902344,-1.0351562,0.012770702,0.19688165,0.030862529,182.70001,39.0,-19.2,42.867645,0.4504532,0.0,1,0,0,3.9023423,3.0116732,false,0.0
23597,-0.0068359375,-0.024902344,-1.0351562,0.012770702,0.19688165,0.030862529,182.70001,39.0,-19.2,42.867645,0.4504532,0.0,1,0,0,3.9023423,3.0116732,false,0.0
23597,-0.0068359375,-0.024902344,-1.0351562,0.012770702,0.19688165,0.030862529,182.70001,39.0,-19.2,42.867645,0.4504532,0.0,1,0,0,3.9023423,3.0116732,false,0.0
23597,-0.0068359375,-0.024902344,-1.0351562,0.012770702,0.19688165,0.030862529,182.70001,39.0,-19.2,42.867645,0.4504532,0.0,1,0,0,3.9023423,3.0116732,false,0.0
23597,-0.0068359375,-0.024902344,-1.0351562,0.012770702,0.19688165,0.030862529,182.70001,39.0,-19.2,42.867645,0.4504532,0.0,1,0,0,3.9023423,3.0116732,false,0.0
23597,-0.0068359375,-0.024902344,-1.0351562,0.012770702,0.19688165,0.030862529,182.70001,39.0,-19.2,42.867645,0.4504532,0.0,1,0,0,3.9023423,3.0116732,false,0.0
23597,-0.0068359375,-0.024902344,-1.0351562,0.012770702,0.19688165,0.030862529,182.70001,39.0,-19.2,42.867645,0.4504532,0.0,1,0,0,3.9023423,3.0116732,false,0.0
23597,-0.0068359375,-0.024902344,-1.0351562,0.012770702,0.19688165,0.030862529,182.70001,39.0,-19.2,42.867645,0.4504532,0.0,1,0,0,3.9023423,3.0116732,false,0.0
23598,-0.0068359375,-0.024902344,-1.0351562,0.012770702,0.19688165,0.030862529,182.70001,39.0,-19.2,42.867645,0.4504532,0.0,1,0,0,3.9023423,3.0116732,false,0.0
23598,-0.0068359375,-0.024902344,-1.0351562,0.012770702,0.19688165,0.030862529,182.70001,39.0,-19.2,42.867645,0.4504532,0.0,1,0,0,3.9023423,3.0116732,false,0.0
23598,-0.0068359375,-0.024902344,-1.0351562,0.012770702,0.19688165,0.030862529,182.70001,39.0,-19.2,42.867645,0.4504532,0.0,1,0,0,3.9023423,3.0116732,false,0.0
23610,-0.0068359375,-0.024902344,-1.0351562,0.012770702,0.19688165,0.030862529,182.70001,39.0,-19.2,42.867645,0.4504532,0.0,1,0,0,3.9023423,3.0116732,false,0.0
23610,-0.0068359375,-0.024902344,-1.0351562,0.012770702,0.19688165,0.030862529,182.70001,39.0,-19.2,42.867645,0.4504532,0.0,1,0,0,3.9023423,3.0116732,false,0.0
23610,-0.0068359375,-0.024902344,-1.0351562,0.012770702,0.19688165,0.030862529,182.70001,39.0,-19.2,42.867645,0.4504532,0.0,1,0,0,3.9023423,3.0116732,false,0.0
23610,-0.0068359375,-0.024902344,-1.0351562,0.012770702,0.19688165,0.030862529,182.70001,39.0,-19.2,42.867645,0.4504532,0.0,1,0,0,3.9023423,3.0116732,false,0.0
23610,-0.0068359375,-0.024902344,-1.0351562,0.012770702,0.19688165,0.030862529,182.70001,39.0,-19.2,42.867645,0.4504532,0.0,1,0,0,3.9023423,3.0116732,false,0.0
23611,-0.0068359375,-0.024902344,-1.0351562,0.012770702,0.19688165,0.030862529,182.70001,39.0,-19.2,42.867645,0.4504532,0.0,1,0,0,3.9023423,3.0116732,false,0.0
23611,-0.0068359375,-0.024902344,-1.0351562,0.012770702,0.19688165,0.030862529,182.70001,39.0,-19.2,42.867645,0.4504532,0.0,1,0,0,3.9023423,3.0116732,false,0.0
23611,-0.0068359375,-0.024902344,-1.0351562,0.012770702,0.19688165,0.030862529,182.70001,39.0,-19.2,42.867645,0.4504532,0.0,1,0,0,3.9023423,3.0116732,false,0.0
23611,-0.0087890625,-0.024414062,-1.0336914,0.012770702,0.19688165,0.031926755,182.1,39.600002,-18.6,42.89118,0.4504532,0.0,1,0,0,3.9023423,3.0234225,false,0.0
23654,-0.0087890625,-0.024414062,-1.0336914,0.012770702,0.19688165,0.031926755,182.1,39.600002,-18.6,42.89118,0.4504532,0.0,1,0,0,3.9023423,3.0234225,false,0.0
23654,-0.0087890625,-0.024414062,-1.0336914,0.012770702,0.19688165,0.031926755,182.1,39.600002,-18.6,42.89118,0.4504532,0.0,1,0,0,3.9023423,3.0234225,false,0.0
23654,-0.0087890625,-0.024414062,-1.0336914,0.012770702,0.19688165,0.031926755,182.1,39.600002,-18.6,42.89118,0.4504532,0.0,1,0,0,3.9023423,3.0234225,false,0.0
23654,-0.0087890625,-0.024414062,-1.0336914,0.012770702,0.19688165,0.031926755,182.1,39.600002,-18.6,42.89118,0.4504532,0.0,1,0,0,3.9023423,3.0234225,false,0.0
23654,-0.0087890625,-0.024414062,-1.0336914,0.012770702,0.19688165,0.031926755,182.1,39.600002,-18.6,42.89118,0.4504532,0.0,1,0,0,3.9023423,3.0234225,false,0.0
23654,-0.0087890625,-0.024414062,-1.0336914,0.012770702,0.19688165,0.031926755,182.1,39.600002,-18.6,42.89118,0.4504532,0.0,1,0,0,3.9023423,3.0234225,false,0.0
23654,-0.0087890625,-0.024414062,-1.0336914,0.012770702,0.19688165,0.031926755,182.1,39.600002,-18.6,42.89118,0.4504532,0.0,1,0,0,3.9023423,3.0234225,false,0.0
23654,-0.0087890625,-0.024414062,-1.0336914,0.012770702,0.19688165,0.031926755,182.1,39.600002,-18.6,42.89118,0.4504532,0.0,1,0,0,3.9023423,3.0234225,false,0.0
23654,-0.0087890625,-0.024414062,-1.0336914,0.012770702,0.19688165,0.031926755,182.1,39.600002,-18.6,42.89118,0.4504532,0.0,1,0,0,3.9023423,3.0234225,false,0.0
23654,-0.0087890625,-0.024414062,-1.0336914,0.012770702,0.19688165,0.031926755,182.1,39.600002,-18.6,42.89118,0.4504532,0.0,1,0,0,3.9023423,3.0234225,false,0.0
23654,-0.0087890625,-0.024414062,-1.0336914,0.012770702,0.19688165,0.031926755,182.1,39.600002,-18.6,42.89118,0.4504532,0.0,1,0,0,3.9023423,3.0234225,false,0.0
23654,-0.0087890625,-0.024414062,-1.0336914,0.012770702,0.19688165,0.031926755,182.1,39.600002,-18.6,42.89118,0.4504532,0.0,1,0,0,3.9023423,3.0234225,false,0.0
23654,-0.0087890625,-0.024414062,-1.0336914,0.012770702,0.19688165,0.031926755,182.1,39.600002,-18.6,42.89118,0.4504532,0.0,1,0,0,3.9023423,3.0234225,false,0.0
23655,-0.0087890625,-0.024414062,-1.0336914,0.012770702,0.19688165,0.031926755,182.1,39.600002,-18.6,42.89118,0.4504532,0.0,1,0,0,3.9023423,3.0234225,false,0.0
23655,-0.0087890625,-0.024414062,-1.0336914,0.012770702,0.19688165,0.031926755,182.1,39.600002,-18.6,42.89118,0.4504532,0.0,1,0,0,3.9023423,3.0234225,false,0.0
23655,-0.0087890625,-0.024414062,-1.0336914,0.012770702,0.19688165,0.031926755,182.1,39.600002,-18.6,42.89118,0.4504532,0.0,1,0,0,3.9023423,3.0234225,false,0.0
23655,-0.0087890625,-0.024414062,-1.0336914,0.012770702,0.19688165,0.031926755,182.1,39.600002,-18.6,42.89118,0.4504532,0.0,1,0,0,3.9023423,3.0234225,false,0.0
23655,-0.0087890625,-0.024414062,-1.0336914,0.012770702,0.19688165,0.031926755,182.1,39.600002,-18.6,42.89118,0.4504532,0.0,1,0,0,3.9023423,3.0234225,false,0.0
23655,-0.0087890625,-0.024414062,-1.0336914,0.012770702,0.19688165,0.031926755,182.1,39.600002,-18.6,42.89118,0.4504532,0.0,1,0,0,3.9023423,3.0234225,false,0.0
23655,-0.0087890625,-0.024414062,-1.0336914,0.012770702,0.19688165,0.031926755,182.1,39.600002,-18.6,42.89118,0.4504532,0.0,1,0,0,3.9023423,3.0234225,false,0.0
23655,-0.0087890625,-0.024414062,-1.0336914,0.012770702,0.19688165,0.031926755,182.1,39.600002,-18.6,42.89118,0.4504532,0.0,1,0,0,3.9023423,3.0234225,false,0.0
23655,-0.0087890625,-0.024414062,-1.0336914,0.012770702,0.19688165,0.031926755,182.1,39.600002,-18.6,42.89118,0.4504532,0.0,1,0,0,3.9023423,3.0234225,false,0.0
23655,-0.0087890625,-0.024414062,-1.0336914,0.012770702,0.19688165,0.031926755,182.1,39.600002,-18.6,42.89118,0.4504532,0.0,1,0,0,3.9023423,3.0234225,false,0.0
23655,-0.0087890625,-0.024414062,-1.0336914,0.012770702,0.19688165,0.031926755,182.1,39.600002,-18.6,42.89118,0.4504532,0.0,1,0,0,3.9023423,3.0234225,false,0.0
23655,-0.0087890625,-0.024414062,-1.0336914,0.012770702,0.19688165,0.031926755,182.1,39.600002,-18.6,42.89118,0.4504532,0.0,1,0,0,3.9023423,3.0234225,false,0.0
23655,-0.0087890625,-0.024414062,-1.0336914,0.012770702,0.19688165,0.031926755,182.1,39.600002,-18.6,42.89118,0.4504532,0.0,1,0,0,3.9023423,3.0234225,false,0.0
23655,-0.0087890625,-0.024414062,-1.0336914,0.012770702,0.19688165,0.031926755,182.1,39.600002,-18.6,42.89118,0.4504532,0.0,1,0,0,3.9023423,3.0234225,false,0.0
23655,-0.0087890625,-0.024414062,-1.0336914,0.012770702,0.19688165,0.031926755,182.1,39.600002,-18.6,42.89118,0.4504532,0.0,1,0,0,3.9023423,3.0234225,false,0.0
23655,-0.0087890625,-0.024414062,-1.0336914,0.012770702,0.19688165,0.031926755,182.1,39.600002,-18.6,42.89118,0.4504532,0.0,1,0,0,3.9023423,3.0234225,false,0.0
23655,-0.0087890625,-0.024414062,-1.0336914,0.012770702,0.19688165,0.031926755,182.1,39.600002,-18.6,42.89118,0.4504532,0.0,1,0,0,3.9023423,3.0234225,false,0.0
23655,-0.0087890625,-0.024414062,-1.0336914,0.012770702,0.19688165,0.031926755,182.1,39.600002,-18.6,42.89118,0.4504532,0.0,1,0,0,3.9023423,3.0234225,false,0.0
23655,-0.0087890625,-0.024414062,-1.0336914,0.012770702,0.19688165,0.031926755,182.1,39.600002,-18.6,42.89118,0.4504532,0.0,1,0,0,3.9023423,3.0234225,false,0.0
23655,-0.0087890625,-0.024414062,-1.0336914,0.012770702,0.19688165,0.031926755,182.1,39.600002,-18.6,42.89118,0.4504532,0.0,1,0,0,3.9023423,3.0234225,false,0.0
23655,-0.0087890625,-0.024414062,-1.0336914,0.012770702,0.19688165,0.031926755,182.1,39.600002,-18.6,42.89118,0.4504532,0.0,1,0,0,3.9023423,3.0234225,false,0.0
23655,-0.0087890625,-0.024414062,-1.0336914,0.012770702,0.19688165,0.031926755,182.1,39.600002,-18.6,42.89118,0.4504532,0.0,1,0,0,3.9023423,3.0234225,false,0.0
23655,-0.0087890625,-0.024414062,-1.0336914,0.012770702,0.19688165,0.031926755,182.1,39.600002,-18.6,42.89118,0.4504532,0.0,1,0,0,3.9023423,3.0234225,false,0.0
23655,-0.0087890625,-0.024414062,-1.0336914,0.012770702,0.19688165,0.031926755,182.1,39.600002,-18.6,42.89118,0.4504532,0.0,1,0,0,3.9023423,3.0234225,false,0.0
23655,-0.0087890625,-0.024414062,-1.0336914,0.012770702,0.19688165,0.031926755,182.1,39.600002,-18.6,42.89118,0.4504532,0.0,1,0,0,3.9023423,3.0234225,false,0.0
23655,-0.0087890625,-0.024414062,-1.0336914,0.012770702,0.19688165,0.031926755,182.1,39.600002,-18.6,42.89118,0.4504532,0.0,1,0,0,3.9023423,3.0234225,false,0.0
23655,-0.0087890625,-0.024414062,-1.0336914,0.012770702,0.19688165,0.031926755,182.1,39.600002,-18.6,42.89118,0.4504532,0.0,1,0,0,3.9023423,3.0234225,false,0.0
23655,-0.0087890625,-0.024414062,-1.0336914,0.012770702,0.19688165,0.031926755,182.1,39.600002,-18.6,42.89118,0.4504532,0.0,1,0,0,3.9023423,3.0234225,false,0.0
23655,-0.0087890625,-0.024414062,-1.0336914,0.012770702,0.19688165,0.031926755,182.1,39.600002,-18.6,42.89118,0.4504532,0.0,1,0,0,3.9023423,3.0234225,false,0.0
23655,-0.008300781,-0.026855469,-1.0361328,0.008513802,0.19688165,0.030862529,183.0,42.9,-20.1,42.87059,0.4504532,0.0,1,0,0,3.8847182,3.0057983,false,0.0
23697,-0.008300781,-0.026855469,-1.0361328,0.008513802,0.19688165,0.030862529,183.0,42.9,-20.1,42.87059,0.4504532,0.0,1,0,0,3.8847182,3.0057983,false,0.0
23698,-0.008300781,-0.026855469,-1.0361328,0.008513802,0.19688165,0.030862529,183.0,42.9,-20.1,42.87059,0.4504532,0.0,1,0,0,3.8847182,3.0057983,false,0.0
23698,-0.008300781,-0.026855469,-1.0361328,0.008513802,0.19688165,0.030862529,183.0,42.9,-20.1,42.87059,0.4504532,0.0,1,0,0,3.8847182,3.0057983,false,0.0
23698,-0.008300781,-0.026855469,-1.0361328,0.008513802,0.19688165,0.030862529,183.0,42.9,-20.1,42.87059,0.4504532,0.0,1,0,0,3.8847182,3.0057983,false,0.0
23698,-0.008300781,-0.026855469,-1.0361328,0.008513802,0.19688165,0.030862529,183.0,42.9,-20.1,42.87059,0.4504532,0.0,1,0,0,3.8847182,3.0057983,false,0.0
23698,-0.008300781,-0.026855469,-1.0361328,0.008513802,0.19688165,0.030862529,183.0,42.9,-20.1,42.87059,0.4504532,0.0,1,0,0,3.8847182,3.0057983,false,0.0
23698,-0.008300781,-0.026855469,-1.0361328,0.008513802,0.19688165,0.030862529,183.0,42.9,-20.1,42.87059,0.4504532,0.0,1,0,0,3.8847182,3.0057983,false,0.0
23711,-0.008300781,-0.026855469,-1.0361328,0.008513802,0.19688165,0.030862529,183.0,42.9,-20.1,42.87059,0.4504532,0.0,1,0,0,3.8847182,3.0057983,false,0.0
23711,-0.008300781,-0.026855469,-1.0361328,0.008513802,0.19688165,0.030862529,183.0,42.9,-20.1,42.87059,0.4504532,0.0,1,0,0,3.8847182,3.0057983,false,0.0
23711,-0.008300781,-0.026855469,-1.0361328,0.008513802,0.19688165,0.030862529,183.0,42.9,-20.1,42.87059,0.4504532,0.0,1,0,0,3.8847182,3.0057983,false,0.0
23711,-0.008300781,-0.026855469,-1.0361328,0.008513802,0.19688165,0.030862529,183.0,42.9,-20.1,42.87059,0.4504532,0.0,1,0,0,3.8847182,3.0057983,false,0.0
23711,-0.008300781,-0.026855469,-1.0361328,0.008513802,0.19688165,0.030862529,183.0,42.9,-20.1,42.87059,0.4504532,0.0,1,0,0,3.8847182,3.0057983,false,0.0
23711,-0.008300781,-0.026855469,-1.0361328,0.008513802,0.19688165,0.030862529,183.0,42.9,-20.1,42.87059,0.4504532,0.0,1,0,0,3.8847182,3.0057983,false,0.0
23711,-0.008300781,-0.026855469,-1.0361328,0.008513802,0.19688165,0.030862529,183.0,42.9,-20.1,42.87059,0.4504532,0.0,1,0,0,3.8847182,3.0057983,false,0.0
23711,-0.008300781,-0.026855469,-1.0361328,0.008513802,0.19688165,0.030862529,183.0,42.9,-20.1,42.87059,0.4504532,0.0,1,0,0,3.8847182,3.0057983,false,0.0
23712,-0.008300781,-0.026855469,-1.0361328,0.008513802,0.19688165,0.030862529,183.0,42.9,-20.1,42.87059,0.4504532,0.0,1,0,0,3.8847182,3.0057983,false,0.0
23712,-0.008300781,-0.026855469,-1.0361328,0.008513802,0.19688165,0.030862529,183.0,42.9,-20.1,42.87059,0.4504532,0.0,1,0,0,3.8847182,3.0057983,false,0.0
23712,-0.008300781,-0.026855469,-1.0361328,0.008513802,0.19688165,0.030862529,183.0,42.9,-20.1,42.87059,0.4504532,0.0,1,0,0,3.8847182,3.0057983,false,0.0
23712,-0.008300781,-0.026855469,-1.0361328,0.008513802,0.19688165,0.030862529,183.0,42.9,-20.1,42.87059,0.4504532,0.0,1,0,0,3.8847182,3.0057983,false,0.0
23712,-0.008300781,-0.026855469,-1.0361328,0.008513802,0.19688165,0.030862529,183.0,42.9,-20.1,42.87059,0.4504532,0.0,1,0,0,3.8847182,3.0057983,false,0.0
23712,-0.008300781,-0.026855469,-1.0361328,0.008513802,0.19688165,0.030862529,183.0,42.9,-20.1,42.87059,0.4504532,0.0,1,0,0,3.8847182,3.0057983,false,0.0
23712,-0.008300781,-0.026855469,-1.0361328,0.008513802,0.19688165,0.030862529,183.0,42.9,-20.1,42.87059,0.4504532,0.0,1,0,0,3.8847182,3.0057983,false,0.0
23712,-0.008300781,-0.026855469,-1.0361328,0.008513802,0.19688165,0.030862529,183.0,42.9,-20.1,42.87059,0.4504532,0.0,1,0,0,3.8847182,3.0057983,false,0.0
23712,-0.008300781,-0.026855469,-1.0361328,0.008513802,0.19688165,0.030862529,183.0,42.9,-20.1,42.87059,0.4504532,0.0,1,0,0,3.8847182,3.0057983,false,0.0
23712,-0.008300781,-0.026855469,-1.0361328,0.008513802,0.19688165,0.030862529,183.0,42.9,-20.1,42.87059,0.4504532,0.0,1,0,0,3.8847182,3.0057983,false,0.0
23712,-0.008300781,-0.026855469,-1.0361328,0.008513802,0.19688165,0.030862529,183.0,42.9,-20.1,42.87059,0.4504532,0.0,1,0,0,3.8847182,3.0057983,false,0.0
23712,-0.008300781,-0.026855469,-1.0361328,0.008513802,0.19688165,0.030862529,183.0,42.9,-20.1,42.87059,0.4504532,0.0,1,0,0,3.8847182,3.0057983,false,0.0
23712,-0.008300781,-0.026855469,-1.0361328,0.008513802,0.19688165,0.030862529,183.0,42.9,-20.1,42.87059,0.4504532,0.0,1,0,0,3.8847182,3.0057983,false,0.0
23712,-0.008300781,-0.026855469,-1.0361328,0.008513802,0.19688165,0.030862529,183.0,42.9,-20.1,42.87059,0.4504532,0.0,1,0,0,3.8847182,3.0057983,false,0.0
23712,-0.008300781,-0.026855469,-1.0361328,0.008513802,0.19688165,0.030862529,183.0,42.9,-20.1,42.87059,0.4504532,0.0,1,0,0,3.8847182,3.0057983,false,0.0
23712,-0.008300781,-0.026855469,-1.0361328,0.008513802,0.19688165,0.030862529,183.0,42.9,-20.1,42.87059,0.4504532,0.0,1,0,0,3.8847182,3.0057983,false,0.0
23712,-0.008300781,-0.026855469,-1.0361328,0.008513802,0.19688165,0.030862529,183.0,42.9,-20.1,42.87059,0.4504532,0.0,1,0,0,3.8847182,3.0057983,false,0.0
23712,-0.008300781,-0.026855469,-1.0361328,0.008513802,0.19688165,0.030862529,183.0,42.9,-20.1,42.87059,0.4504532,0.0,1,0,0,3.8847182,3.0057983,false,0.0
23712,-0.008300781,-0.026855469,-1.0361328,0.008513802,0.19688165,0.030862529,183.0,42.9,-20.1,42.87059,0.4504532,0.0,1,0,0,3.8847182,3.0057983,false,0.0
23712,-0.008300781,-0.026855469,-1.0361328,0.008513802,0.19688165,0.030862529,183.0,42.9,-20.1,42.87059,0.4504532,0.0,1,0,0,3.8847182,3.0057983,false,0.0
23712,-0.008300781,-0.026855469,-1.0361328,0.008513802,0.19688165,0.030862529,183.0,42.9,-20.1,42.87059,0.4504532,0.0,1,0,0,3.8847182,3.0057983,false,0.0
23712,-0.008300781,-0.026855469,-1.0361328,0.008513802,0.19688165,0.030862529,183.0,42.9,-20.1,42.87059,0.4504532,0.0,1,0,0,3.8847182,3.0057983,false,0.0
23712,-0.008300781,-0.026855469,-1.0361328,0.008513802,0.19688165,0.030862529,183.0,42.9,-20.1,42.87059,0.4504532,0.0,1,0,0,3.8847182,3.0057983,false,0.0
23712,-0.008300781,-0.026855469,-1.0361328,0.008513802,0.19688165,0.030862529,183.0,42.9,-20.1,42.87059,0.4504532,0.0,1,0,0,3.8847182,3.0057983,false,0.0
23712,-0.008300781,-0.026855469,-1.0361328,0.008513802,0.19688165,0.030862529,183.0,42.9,-20.1,42.87059,0.4504532,0.0,1,0,0,3.8847182,3.0057983,false,0.0
23712,-0.008300781,-0.026855469,-1.0361328,0.008513802,0.19688165,0.030862529,183.0,42.9,-20.1,42.87059,0.4504532,0.0,1,0,0,3.8847182,3.0057983,false,0.0
23712,-0.008300781,-0.026855469,-1.0361328,0.008513802,0.19688165,0.030862529,183.0,42.9,-20.1,42.87059,0.4504532,0.0,1,0,0,3.8847182,3.0057983,false,0.0
23713,-0.010253906,-0.0234375,-1.0356445,0.017027603,0.19688165,0.03299098,182.70001,39.0,-17.7,42.873528,0.4504532,0.0,1,0,0,3.9081407,3.0234225,false,0.0
23766,-0.010253906,-0.0234375,-1.0356445,0.017027603,0.19688165,0.03299098,182.70001,39.0,-17.7,42.873528,0.4504532,0.0,1,0,0,3.9081407,3.0234225,false,0.0
23766,-0.010253906,-0.0234375,-1.0356445,0.017027603,0.19688165,0.03299098,182.70001,39.0,-17.7,42.873528,0.4504532,0.0,1,0,0,3.9081407,3.0234225,false,0.0
23766,-0.010253906,-0.0234375,-1.0356445,0.017027603,0.19688165,0.03299098,182.70001,39.0,-17.7,42.873528,0.4504532,0.0,1,0,0,3.9081407,3.0234225,false,0.0
23766,-0.010253906,-0.0234375,-1.0356445,0.017027603,0.19688165,0.03299098,182.70001,39.0,-17.7,42.873528,0.4504532,0.0,1,0,0,3.9081407,3.0234225,false,0.0
23766,-0.010253906,-0.0234375,-1.0356445,0.017027603,0.19688165,0.03299098,182.70001,39.0,-17.7,42.873528,0.4504532,0.0,1,0,0,3.9081407,3.0234225,false,0.0
23766,-0.010253906,-0.0234375,-1.0356445,0.017027603,0.19688165,0.03299098,182.70001,39.0,-17.7,42.873528,0.4504532,0.0,1,0,0,3.9081407,3.0234225,false,0.0
23766,-0.010253906,-0.0234375,-1.0356445,0.017027603,0.19688165,0.03299098,182.70001,39.0,-17.7,42.873528,0.4504532,0.0,1,0,0,3.9081407,3.0234225,false,0.0
23766,-0.010253906,-0.0234375,-1.0356445,0.017027603,0.19688165,0.03299098,182.70001,39.0,-17.7,42.873528,0.4504532,0.0,1,0,0,3.9081407,3.0234225,false,0.0
23766,-0.010253906,-0.0234375,-1.0356445,0.017027603,0.19688165,0.03299098,182.70001,39.0,-17.7,42.873528,0.4504532,0.0,1,0,0,3.9081407,3.0234225,false,0.0
23766,-0.010253906,-0.0234375,-1.0356445,0.017027603,0.19688165,0.03299098,182.70001,39.0,-17.7,42.873528,0.4504532,0.0,1,0,0,3.9081407,3.0234225,false,0.0
23766,-0.010253906,-0.0234375,-1.0356445,0.017027603,0.19688165,0.03299098,182.70001,39.0,-17.7,42.873528,0.4504532,0.0,1,0,0,3.9081407,3.0234225,false,0.0
23767,-0.010253906,-0.0234375,-1.0356445,0.017027603,0.19688165,0.03299098,182.70001,39.0,-17.7,42.873528,0.4504532,0.0,1,0,0,3.9081407,3.0234225,false,0.0
23767,-0.010253906,-0.0234375,-1.0356445,0.017027603,0.19688165,0.03299098,182.70001,39.0,-17.7,42.873528,0.4504532,0.0,1,0,0,3.9081407,3.0234225,false,0.0
23767,-0.010253906,-0.0234375,-1.0356445,0.017027603,0.19688165,0.03299098,182.70001,39.0,-17.7,42.873528,0.4504532,0.0,1,0,0,3.9081407,3.0234225,false,0.0
23767,-0.010253906,-0.0234375,-1.0356445,0.017027603,0.19688165,0.03299098,182.70001,39.0,-17.7,42.873528,0.4504532,0.0,1,0,0,3.9081407,3.0234225,false,0.0
23767,-0.010253906,-0.0234375,-1.0356445,0.017027603,0.19688165,0.03299098,182.70001,39.0,-17.7,42.873528,0.4504532,0.0,1,0,0,3.9081407,3.0234225,false,0.0
23767,-0.010253906,-0.0234375,-1.0356445,0.017027603,0.19688165,0.03299098,182.70001,39.0,-17.7,42.873528,0.4504532,0.0,1,0,0,3.9081407,3.0234225,false,0.0
23767,-0.010253906,-0.0234375,-1.0356445,0.017027603,0.19688165,0.03299098,182.70001,39.0,-17.7,42.873528,0.4504532,0.0,1,0,0,3.9081407,3.0234225,false,0.0
23767,-0.010253906,-0.0234375,-1.0356445,0.017027603,0.19688165,0.03299098,182.70001,39.0,-17.7,42.873528,0.4504532,0.0,1,0,0,3.9081407,3.0234225,false,0.0
23767,-0.010253906,-0.0234375,-1.0356445,0.017027603,0.19688165,0.03299098,182.70001,39.0,-17.7,42.873528,0.4504532,0.0,1,0,0,3.9081407,3.0234225,false,0.0
23767,-0.010253906,-0.0234375,-1.0356445,0.017027603,0.19688165,0.03299098,182.70001,39.0,-17.7,42.873528,0.4504532,0.0,1,0,0,3.9081407,3.0234225,false,0.0
23767,-0.010253906,-0.0234375,-1.0356445,0.017027603,0.19688165,0.03299098,182.70001,39.0,-17.7,42.873528,0.4504532,0.0,1,0,0,3.9081407,3.0234225,false,0.0
23767,-0.010253906,-0.0234375,-1.0356445,0.017027603,0.19688165,0.03299098,182.70001,39.0,-17.7,42.873528,0.4504532,0.0,1,0,0,3.9081407,3.0234225,false,0.0
23767,-0.010253906,-0.0234375,-1.0356445,0.017027603,0.19688165,0.03299098,182.70001,39.0,-17.7,42.873528,0.4504532,0.0,1,0,0,3.9081407,3.0234225,false,0.0
23767,-0.010253906,-0.0234375,-1.0356445,0.017027603,0.19688165,0.03299098,182.70001,39.0,-17.7,42.873528,0.4504532,0.0,1,0,0,3.9081407,3.0234225,false,0.0
23767,-0.010253906,-0.0234375,-1.0356445,0.017027603,0.19688165,0.03299098,182.70001,39.0,-17.7,42.873528,0.4504532,0.0,1,0,0,3.9081407,3.0234225,false,0.0
23767,-0.010253906,-0.0234375,-1.0356445,0.017027603,0.19688165,0.03299098,182.70001,39.0,-17.7,42.873528,0.4504532,0.0,1,0,0,3.9081407,3.0234225,false,0.0
23767,-0.010253906,-0.0234375,-1.0356445,0.017027603,0.19688165,0.03299098,182.70001,39.0,-17.7,42.873528,0.4504532,0.0,1,0,0,3.9081407,3.0234225,false,0.0
23767,-0.010253906,-0.0234375,-1.0356445,0.017027603,0.19688165,0.03299098,182.70001,39.0,-17.7,42.873528,0.4504532,0.0,1,0,0,3.9081407,3.0234225,false,0.0
23767,-0.010253906,-0.0234375,-1.0356445,0.017027603,0.19688165,0.03299098,182.70001,39.0,-17.7,42.873528,0.4504532,0.0,1,0,0,3.9081407,3.0234225,false,0.0
23767,-0.010253906,-0.0234375,-1.0356445,0.017027603,0.19688165,0.03299098,182.70001,39.0,-17.7,42.873528,0.4504532,0.0,1,0,0,3.9081407,3.0234225,false,0.0
23767,-0.010253906,-0.0234375,-1.0356445,0.017027603,0.19688165,0.03299098,182.70001,39.0,-17.7,42.873528,0.4504532,0.0,1,0,0,3.9081407,3.0234225,false,0.0
23767,-0.010253906,-0.0234375,-1.0356445,0.017027603,0.19688165,0.03299098,182.70001,39.0,-17.7,42.873528,0.4504532,0.0,1,0,0,3.9081407,3.0234225,false,0.0
23768,-0.010253906,-0.0234375,-1.0356445,0.017027603,0.19688165,0.03299098,182.70001,39.0,-17.7,42.873528,0.4504532,0.0,1,0,0,3.9081407,3.0234225,false,0.0
23768,-0.010253906,-0.0234375,-1.0356445,0.017027603,0.19688165,0.03299098,182.70001,39.0,-17.7,42.873528,0.4504532,0.0,1,0,0,3.9081407,3.0234225,false,0.0
23768,-0.010253906,-0.0234375,-1.0356445,0.017027603,0.19688165,0.03299098,182.70001,39.0,-17.7,42.873528,0.4504532,0.0,1,0,0,3.9081407,3.0234225,false,0.0
23768,-0.010253906,-0.0234375,-1.0356445,0.017027603,0.19688165,0.03299098,182.70001,39.0,-17.7,42.873528,0.4504532,0.0,1,0,0,3.9081407,3.0234225,false,0.0
23768,-0.010253906,-0.0234375,-1.0356445,0.017027603,0.19688165,0.03299098,182.70001,39.0,-17.7,42.873528,0.4504532,0.0,1,0,0,3.9081407,3.0234225,false,0.0
23768,-0.010253906,-0.0234375,-1.0356445,0.017027603,0.19688165,0.03299098,182.70001,39.0,-17.7,42.873528,0.4504532,0.0,1,0,0,3.9081407,3.0234225,false,0.0
23768,-0.010253906,-0.0234375,-1.0356445,0.017027603,0.19688165,0.03299098,182.70001,39.0,-17.7,42.873528,0.4504532,0.0,1,0,0,3.9081407,3.0234225,false,0.0
23768,-0.010253906,-0.0234375,-1.0356445,0.017027603,0.19688165,0.03299098,182.70001,39.0,-17.7,42.873528,0.4504532,0.0,1,0,0,3.9081407,3.0234225,false,0.0
23768,-0.010253906,-0.0234375,-1.0356445,0.017027603,0.19688165,0.03299098,182.70001,39.0,-17.7,42.873528,0.4504532,0.0,1,0,0,3.9081407,3.0234225,false,0.0
23768,-0.0126953125,-0.022949219,-1.0336914,0.013834927,0.19688165,0.030862529,181.5,39.300003,-18.300001,42.89706,0.4504532,0.0,1,0,0,3.8905928,3.0175478,false,0.0
23820,-0.0126953125,-0.022949219,-1.0336914,0.013834927,0.19688165,0.030862529,181.5,39.300003,-18.300001,42.89706,0.4504532,0.0,1,0,0,3.8905928,3.0175478,false,0.0
23820,-0.0126953125,-0.022949219,-1.0336914,0.013834927,0.19688165,0.030862529,181.5,39.300003,-18.300001,42.89706,0.4504532,0.0,1,0,0,3.8905928,3.0175478,false,0.0
23820,-0.0126953125,-0.022949219,-1.0336914,0.013834927,0.19688165,0.030862529,181.5,39.300003,-18.300001,42.89706,0.4504532,0.0,1,0,0,3.8905928,3.0175478,false,0.0
23820,-0.0126953125,-0.022949219,-1.0336914,0.013834927,0.19688165,0.030862529,181.5,39.300003,-18.300001,42.89706,0.4504532,0.0,1,0,0,3.8905928,3.0175478,false,0.0
23820,-0.0126953125,-0.022949219,-1.0336914,0.013834927,0.19688165,0.030862529,181.5,39.300003,-18.300001,42.89706,0.4504532,0.0,1,0,0,3.8905928,3.0175478,false,0.0
23820,-0.0126953125,-0.022949219,-1.0336914,0.013834927,0.19688165,0.030862529,181.5,39.300003,-18.300001,42.89706,0.4504532,0.0,1,0,0,3.8905928,3.0175478,false,0.0
23820,-0.0126953125,-0.022949219,-1.0336914,0.013834927,0.19688165,0.030862529,181.5,39.300003,-18.300001,42.89706,0.4504532,0.0,1,0,0,3.8905928,3.0175478,false,0.0
23820,-0.0126953125,-0.022949219,-1.0336914,0.013834927,0.19688165,0.030862529,181.5,39.300003,-18.300001,42.89706,0.4504532,0.0,1,0,0,3.8905928,3.0175478,false,0.0
23820,-0.0126953125,-0.022949219,-1.0336914,0.013834927,0.19688165,0.030862529,181.5,39.300003,-18.300001,42.89706,0.4504532,0.0,1,0,0,3.8905928,3.0175478,false,0.0
23820,-0.0126953125,-0.022949219,-1.0336914,0.013834927,0.19688165,0.030862529,181.5,39.300003,-18.300001,42.89706,0.4504532,0.0,1,0,0,3.8905928,3.0175478,false,0.0
23821,-0.0126953125,-0.022949219,-1.0336914,0.013834927,0.19688165,0.030862529,181.5,39.300003,-18.300001,42.89706,0.4504532,0.0,1,0,0,3.8905928,3.0175478,false,0.0
23821,-0.0126953125,-0.022949219,-1.0336914,0.013834927,0.19688165,0.030862529,181.5,39.300003,-18.300001,42.89706,0.4504532,0.0,1,0,0,3.8905928,3.0175478,false,0.0
23821,-0.0126953125,-0.022949219,-1.0336914,0.013834927,0.19688165,0.030862529,181.5,39.300003,-18.300001,42.89706,0.4504532,0.0,1,0,0,3.8905928,3.0175478,false,0.0
23821,-0.0126953125,-0.022949219,-1.0336914,0.013834927,0.19688165,0.030862529,181.5,39.300003,-18.300001,42.89706,0.4504532,0.0,1,0,0,3.8905928,3.0175478,false,0.0
23821,-0.0126953125,-0.022949219,-1.0336914,0.013834927,0.19688165,0.030862529,181.5,39.300003,-18.300001,42.89706,0.4504532,0.0,1,0,0,3.8905928,3.0175478,false,0.0
23821,-0.0126953125,-0.022949219,-1.0336914,0.013834927,0.19688165,0.030862529,181.5,39.300003,-18.300001,42.89706,0.4504532,0.0,1,0,0,3.8905928,3.0175478,false,0.0
23821,-0.0126953125,-0.022949219,-1.0336914,0.013834927,0.19688165,0.030862529,181.5,39.300003,-18.300001,42.89706,0.4504532,0.0,1,0,0,3.8905928,3.0175478,false,0.0
23821,-0.0126953125,-0.022949219,-1.0336914,0.013834927,0.19688165,0.030862529,181.5,39.300003,-18.300001,42.89706,0.4504532,0.0,1,0,0,3.8905928,3.0175478,false,0.0
23821,-0.0126953125,-0.022949219,-1.0336914,0.013834927,0.19688165,0.030862529,181.5,39.300003,-18.300001,42.89706,0.4504532,0.0,1,0,0,3.8905928,3.0175478,false,0.0
23821,-0.0126953125,-0.022949219,-1.0336914,0.013834927,0.19688165,0.030862529,181.5,39.300003,-18.300001,42.89706,0.4504532,0.0,1,0,0,3.8905928,3.0175478,false,0.0
23821,-0.0126953125,-0.022949219,-1.0336914,0.013834927,0.19688165,0.030862529,181.5,39.300003,-18.300001,42.89706,0.4504532,0.0,1,0,0,3.8905928,3.0175478,false,0.0
23821,-0.0126953125,-0.022949219,-1.0336914,0.013834927,0.19688165,0.030862529,181.5,39.300003,-18.300001,42.89706,0.4504532,0.0,1,0,0,3.8905928,3.0175478,false,0.0
23821,-0.0126953125,-0.022949219,-1.0336914,0.013834927,0.19688165,0.030862529,181.5,39.300003,-18.300001,42.89706,0.4504532,0.0,1,0,0,3.8905928,3.0175478,false,0.0
23821,-0.0126953125,-0.022949219,-1.0336914,0.013834927,0.19688165,0.030862529,181.5,39.300003,-18.300001,42.89706,0.4504532,0.0,1,0,0,3.8905928,3.0175478,false,0.0
23821,-0.0126953125,-0.022949219,-1.0336914,0.013834927,0.19688165,0.030862529,181.5,39.300003,-18.300001,42.89706,0.4504532,0.0,1,0,0,3.8905928,3.0175478,false,0.0
23821,-0.0126953125,-0.022949219,-1.0336914,0.013834927,0.19688165,0.030862529,181.5,39.300003,-18.300001,42.89706,0.4504532,0.0,1,0,0,3.8905928,3.0175478,false,0.0
23821,-0.0126953125,-0.022949219,-1.0336914,0.013834927,0.19688165,0.030862529,181.5,39.300003,-18.300001,42.89706,0.4504532,0.0,1,0,0,3.8905928,3.0175478,false,0.0
23821,-0.0126953125,-0.022949219,-1.0336914,0.013834927,0.19688165,0.030862529,181.5,39.300003,-18.300001,42.89706,0.4504532,0.0,1,0,0,3.8905928,3.0175478,false,0.0
23821,-0.0126953125,-0.022949219,-1.0336914,0.013834927,0.19688165,0.030862529,181.5,39.300003,-18.300001,42.89706,0.4504532,0.0,1,0,0,3.8905928,3.0175478,false,0.0
23821,-0.0126953125,-0.022949219,-1.0336914,0.013834927,0.19688165,0.030862529,181.5,39.300003,-18.300001,42.89706,0.4504532,0.0,1,0,0,3.8905928,3.0175478,false,0.0
23821,-0.0126953125,-0.022949219,-1.0336914,0.013834927,0.19688165,0.030862529,181.5,39.300003,-18.300001,42.89706,0.4504532,0.0,1,0,0,3.8905928,3.0175478,false,0.0
23821,-0.0126953125,-0.022949219,-1.0336914,0.013834927,0.19688165,0.030862529,181.5,39.300003,-18.300001,42.89706,0.4504532,0.0,1,0,0,3.8905928,3.0175478,false,0.0
23821,-0.0126953125,-0.022949219,-1.0336914,0.013834927,0.19688165,0.030862529,181.5,39.300003,-18.300001,42.89706,0.4504532,0.0,1,0,0,3.8905928,3.0175478,false,0.0
23821,-0.0126953125,-0.022949219,-1.0336914,0.013834927,0.19688165,0.030862529,181.5,39.300003,-18.300001,42.89706,0.4504532,0.0,1,0,0,3.8905928,3.0175478,false,0.0
23822,-0.0126953125,-0.022949219,-1.0336914,0.013834927,0.19688165,0.030862529,181.5,39.300003,-18.300001,42.89706,0.4504532,0.0,1,0,0,3.8905928,3.0175478,false,0.0
23822,-0.0126953125,-0.022949219,-1.0336914,0.013834927,0.19688165,0.030862529,181.5,39.300003,-18.300001,42.89706,0.4504532,0.0,1,0,0,3.8905928,3.0175478,false,0.0
23822,-0.0126953125,-0.022949219,-1.0336914,0.013834927,0.19688165,0.030862529,181.5,39.300003,-18.300001,42.89706,0.4504532,0.0,1,0,0,3.8905928,3.0175478,false,0.0
23822,-0.0126953125,-0.022949219,-1.0336914,0.013834927,0.19688165,0.030862529,181.5,39.300003,-18.300001,42.89706,0.4504532,0.0,1,0,0,3.8905928,3.0175478,false,0.0
23822,-0.0126953125,-0.022949219,-1.0336914,0.013834927,0.19688165,0.030862529,181.5,39.300003,-18.300001,42.89706,0.4504532,0.0,1,0,0,3.8905928,3.0175478,false,0.0
23822,-0.0126953125,-0.022949219,-1.0336914,0.013834927,0.19688165,0.030862529,181.5,39.300003,-18.300001,42.89706,0.4504532,0.0,1,0,0,3.8905928,3.0175478,false,0.0
23822,-0.0126953125,-0.022949219,-1.0336914,0.013834927,0.19688165,0.030862529,181.5,39.300003,-18.300001,42.89706,0.4504532,0.0,1,0,0,3.8905928,3.0175478,false,0.0
23822,-0.0126953125,-0.022949219,-1.0336914,0.013834927,0.19688165,0.030862529,181.5,39.300003,-18.300001,42.89706,0.4504532,0.0,1,0,0,3.8905928,3.0175478,false,0.0
23822,-0.009765625,-0.024902344,-1.0341797,0.013834927,0.1979459,0.030862529,184.8,41.100002,-18.6,42.89118,0.4504532,0.0,1,0,0,3.9081407,3.0116732,false,0.0
23849,-0.009765625,-0.024902344,-1.0341797,0.013834927,0.1979459,0.030862529,184.8,41.100002,-18.6,42.89118,0.4504532,0.0,1,0,0,3.9081407,3.0116732,false,0.0
23849,-0.009765625,-0.024902344,-1.0341797,0.013834927,0.1979459,0.030862529,184.8,41.100002,-18.6,42.89118,0.4504532,0.0,1,0,0,3.9081407,3.0116732,false,0.0
23849,-0.009765625,-0.024902344,-1.0341797,0.013834927,0.1979459,0.030862529,184.8,41.100002,-18.6,42.89118,0.4504532,0.0,1,0,0,3.9081407,3.0116732,false,0.0
23849,-0.009765625,-0.024902344,-1.0341797,0.013834927,0.1979459,0.030862529,184.8,41.100002,-18.6,42.89118,0.4504532,0.0,1,0,0,3.9081407,3.0116732,false,0.0
23865,-0.009765625,-0.024902344,-1.0341797,0.013834927,0.1979459,0.030862529,184.8,41.100002,-18.6,42.89118,0.4504532,0.0,1,0,0,3.9081407,3.0116732,false,0.0
23865,-0.009765625,-0.024902344,-1.0341797,0.013834927,0.1979459,0.030862529,184.8,41.100002,-18.6,42.89118,0.4504532,0.0,1,0,0,3.9081407,3.0116732,false,0.0
23865,-0.009765625,-0.024902344,-1.0341797,0.013834927,0.1979459,0.030862529,184.8,41.100002,-18.6,42.89118,0.4504532,0.0,1,0,0,3.9081407,3.0116732,false,0.0
23865,-0.009765625,-0.024902344,-1.0341797,0.013834927,0.1979459,0.030862529,184.8,41.100002,-18.6,42.89118,0.4504532,0.0,1,0,0,3.9081407,3.0116732,false,0.0
23866,-0.009765625,-0.024902344,-1.0341797,0.013834927,0.1979459,0.030862529,184.8,41.100002,-18.6,42.89118,0.4504532,0.0,1,0,0,3.9081407,3.0116732,false,0.0
23866,-0.009765625,-0.024902344,-1.0341797,0.013834927,0.1979459,0.030862529,184.8,41.100002,-18.6,42.89118,0.4504532,0.0,1,0,0,3.9081407,3.0116732,false,0.0
23866,-0.009765625,-0.024902344,-1.0341797,0.013834927,0.1979459,0.030862529,184.8,41.100002,-18.6,42.89118,0.4504532,0.0,1,0,0,3.9081407,3.0116732,false,0.0
23866,-0.009765625,-0.024902344,-1.0341797,0.013834927,0.1979459,0.030862529,184.8,41.100002,-18.6,42.89118,0.4504532,0.0,1,0,0,3.9081407,3.0116732,false,0.0
23866,-0.009765625,-0.024902344,-1.0341797,0.013834927,0.1979459,0.030862529,184.8,41.100002,-18.6,42.89118,0.4504532,0.0,1,0,0,3.9081407,3.0116732,false,0.0
23866,-0.009765625,-0.024902344,-1.0341797,0.013834927,0.1979459,0.030862529,184.8,41.100002,-18.6,42.89118,0.4504532,0.0,1,0,0,3.9081407,3.0116732,false,0.0
23866,-0.009765625,-0.024902344,-1.0341797,0.013834927,0.1979459,0.030862529,184.8,41.100002,-18.6,42.89118,0.4504532,0.0,1,0,0,3.9081407,3.0116732,false,0.0
23866,-0.009765625,-0.024902344,-1.0341797,0.013834927,0.1979459,0.030862529,184.8,41.100002,-18.6,42.89118,0.4504532,0.0,1,0,0,3.9081407,3.0116732,false,0.0
23866,-0.009765625,-0.024902344,-1.0341797,0.013834927,0.1979459,0.030862529,184.8,41.100002,-18.6,42.89118,0.4504532,0.0,1,0,0,3.9081407,3.0116732,false,0.0
23866,-0.009765625,-0.024902344,-1.0341797,0.013834927,0.1979459,0.030862529,184.8,41.100002,-18.6,42.89118,0.4504532,0.0,1,0,0,3.9081407,3.0116732,false,0.0
23866,-0.009765625,-0.024902344,-1.0341797,0.013834927,0.1979459,0.030862529,184.8,41.100002,-18.6,42.89118,0.4504532,0.0,1,0,0,3.9081407,3.0116732,false,0.0
23866,-0.009765625,-0.024902344,-1.0341797,0.013834927,0.1979459,0.030862529,184.8,41.100002,-18.6,42.89118,0.4504532,0.0,1,0,0,3.9081407,3.0116732,false,0.0
23866,-0.009765625,-0.024902344,-1.0341797,0.013834927,0.1979459,0.030862529,184.8,41.100002,-18.6,42.89118,0.4504532,0.0,1,0,0,3.9081407,3.0116732,false,0.0
23866,-0.009765625,-0.024902344,-1.0341797,0.013834927,0.1979459,0.030862529,184.8,41.100002,-18.6,42.89118,0.4504532,0.0,1,0,0,3.9081407,3.0116732,false,0.0
23866,-0.009765625,-0.024902344,-1.0341797,0.013834927,0.1979459,0.030862529,184.8,41.100002,-18.6,42.89118,0.4504532,0.0,1,0,0,3.9081407,3.0116732,false,0.0
23866,-0.009765625,-0.024902344,-1.0341797,0.013834927,0.1979459,0.030862529,184.8,41.100002,-18.6,42.89118,0.4504532,0.0,1,0,0,3.9081407,3.0116732,false,0.0
23866,-0.009765625,-0.024902344,-1.0341797,0.013834927,0.1979459,0.030862529,184.8,41.100002,-18.6,42.89118,0.4504532,0.0,1,0,0,3.9081407,3.0116732,false,0.0
23867,-0.009765625,-0.024902344,-1.0341797,0.013834927,0.1979459,0.030862529,184.8,41.100002,-18.6,42.89118,0.4504532,0.0,1,0,0,3.9081407,3.0116732,false,0.0
23867,-0.009765625,-0.024902344,-1.0341797,0.013834927,0.1979459,0.030862529,184.8,41.100002,-18.6,42.89118,0.4504532,0.0,1,0,0,3.9081407,3.0116732,false,0.0
23870,-0.009765625,-0.024902344,-1.0341797,0.013834927,0.1979459,0.030862529,184.8,41.100002,-18.6,42.89118,0.4504532,0.0,1,0,0,3.9081407,3.0116732,false,0.0
23870,-0.009765625,-0.024902344,-1.0341797,0.013834927,0.1979459,0.030862529,184.8,41.100002,-18.6,42.89118,0.4504532,0.0,1,0,0,3.9081407,3.0116732,false,0.0
23870,-0.009765625,-0.024902344,-1.0341797,0.013834927,0.1979459,0.030862529,184.8,41.100002,-18.6,42.89118,0.4504532,0.0,1,0,0,3.9081407,3.0116732,false,0.0
23870,-0.009765625,-0.024902344,-1.0341797,0.013834927,0.1979459,0.030862529,184.8,41.100002,-18.6,42.89118,0.4504532,0.0,1,0,0,3.9081407,3.0116732,false,0.0
23870,-0.009765625,-0.024902344,-1.0341797,0.013834927,0.1979459,0.030862529,184.8,41.100002,-18.6,42.89118,0.4504532,0.0,1,0,0,3.9081407,3.0116732,false,0.0
23870,-0.009765625,-0.024902344,-1.0341797,0.013834927,0.1979459,0.030862529,184.8,41.100002,-18.6,42.89118,0.4504532,0.0,1,0,0,3.9081407,3.0116732,false,0.0
23870,-0.009765625,-0.024902344,-1.0341797,0.013834927,0.1979459,0.030862529,184.8,41.100002,-18.6,42.89118,0.4504532,0.0,1,0,0,3.9081407,3.0116732,false,0.0
23870,-0.009765625,-0.024902344,-1.0341797,0.013834927,0.1979459,0.030862529,184.8,41.100002,-18.6,42.89118,0.4504532,0.0,1,0,0,3.9081407,3.0116732,false,0.0
23870,-0.009765625,-0.024902344,-1.0341797,0.013834927,0.1979459,0.030862529,184.8,41.100002,-18.6,42.89118,0.4504532,0.0,1,0,0,3.9081407,3.0116732,false,0.0
23870,-0.009765625,-0.024902344,-1.0341797,0.013834927,0.1979459,0.030862529,184.8,41.100002,-18.6,42.89118,0.4504532,0.0,1,0,0,3.9081407,3.0116732,false,0.0
23870,-0.009765625,-0.024902344,-1.0341797,0.013834927,0.1979459,0.030862529,184.8,41.100002,-18.6,42.89118,0.4504532,0.0,1,0,0,3.9081407,3.0116732,false,0.0
23870,-0.009765625,-0.024902344,-1.0341797,0.013834927,0.1979459,0.030862529,184.8,41.100002,-18.6,42.89118,0.4504532,0.0,1,0,0,3.9081407,3.0116732,false,0.0
23870,-0.009765625,-0.024902344,-1.0341797,0.013834927,0.1979459,0.030862529,184.8,41.100002,-18.6,42.89118,0.4504532,0.0,1,0,0,3.9081407,3.0116732,false,0.0
23870,-0.009765625,-0.024902344,-1.0341797,0.013834927,0.1979459,0.030862529,184.8,41.100002,-18.6,42.89118,0.4504532,0.0,1,0,0,3.9081407,3.0116732,false,0.0
23870,-0.009765625,-0.024902344,-1.0341797,0.013834927,0.1979459,0.030862529,184.8,41.100002,-18.6,42.89118,0.4504532,0.0,1,0,0,3.9081407,3.0116732,false,0.0
23870,-0.01171875,-0.021972656,-1.0351562,0.010642252,0.1990101,0.031926755,184.8,40.5,-15.6,42.87941,0.4504532,0.0,1,0,0,3.9023423,3.0057983,false,0.0
23908,-0.01171875,-0.021972656,-1.0351562,0.010642252,0.1990101,0.031926755,184.8,40.5,-15.6,42.87941,0.4504532,0.0,1,0,0,3.9023423,3.0057983,false,0.0
23908,-0.01171875,-0.021972656,-1.0351562,0.010642252,0.1990101,0.031926755,184.8,40.5,-15.6,42.87941,0.4504532,0.0,1,0,0,3.9023423,3.0057983,false,0.0
23908,-0.01171875,-0.021972656,-1.0351562,0.010642252,0.1990101,0.031926755,184.8,40.5,-15.6,42.87941,0.4504532,0.0,1,0,0,3.9023423,3.0057983,false,0.0
23908,-0.01171875,-0.021972656,-1.0351562,0.010642252,0.1990101,0.031926755,184.8,40.5,-15.6,42.87941,0.4504532,0.0,1,0,0,3.9023423,3.0057983,false,0.0
23908,-0.01171875,-0.021972656,-1.0351562,0.010642252,0.1990101,0.031926755,184.8,40.5,-15.6,42.87941,0.4504532,0.0,1,0,0,3.9023423,3.0057983,false,0.0
23908,-0.01171875,-0.021972656,-1.0351562,0.010642252,0.1990101,0.031926755,184.8,40.5,-15.6,42.87941,0.4504532,0.0,1,0,0,3.9023423,3.0057983,false,0.0
23908,-0.01171875,-0.021972656,-1.0351562,0.010642252,0.1990101,0.031926755,184.8,40.5,-15.6,42.87941,0.4504532,0.0,1,0,0,3.9023423,3.0057983,false,0.0
23908,-0.01171875,-0.021972656,-1.0351562,0.010642252,0.1990101,0.031926755,184.8,40.5,-15.6,42.87941,0.4504532,0.0,1,0,0,3.9023423,3.0057983,false,0.0
23908,-0.01171875,-0.021972656,-1.0351562,0.010642252,0.1990101,0.031926755,184.8,40.5,-15.6,42.87941,0.4504532,0.0,1,0,0,3.9023423,3.0057983,false,0.0
23908,-0.01171875,-0.021972656,-1.0351562,0.010642252,0.1990101,0.031926755,184.8,40.5,-15.6,42.87941,0.4504532,0.0,1,0,0,3.9023423,3.0057983,false,0.0
23908,-0.01171875,-0.021972656,-1.0351562,0.010642252,0.1990101,0.031926755,184.8,40.5,-15.6,42.87941,0.4504532,0.0,1,0,0,3.9023423,3.0057983,false,0.0
23908,-0.01171875,-0.021972656,-1.0351562,0.010642252,0.1990101,0.031926755,184.8,40.5,-15.6,42.87941,0.4504532,0.0,1,0,0,3.9023423,3.0057983,false,0.0
23908,-0.01171875,-0.021972656,-1.0351562,0.010642252,0.1990101,0.031926755,184.8,40.5,-15.6,42.87941,0.4504532,0.0,1,0,0,3.9023423,3.0057983,false,0.0
23909,-0.01171875,-0.021972656,-1.0351562,0.010642252,0.1990101,0.031926755,184.8,40.5,-15.6,42.87941,0.4504532,0.0,1,0,0,3.9023423,3.0057983,false,0.0
23909,-0.01171875,-0.021972656,-1.0351562,0.010642252,0.1990101,0.031926755,184.8,40.5,-15.6,42.87941,0.4504532,0.0,1,0,0,3.9023423,3.0057983,false,0.0
23909,-0.01171875,-0.021972656,-1.0351562,0.010642252,0.1990101,0.031926755,184.8,40.5,-15.6,42.87941,0.4504532,0.0,1,0,0,3.9023423,3.0057983,false,0.0
23909,-0.01171875,-0.021972656,-1.0351562,0.010642252,0.1990101,0.031926755,184.8,40.5,-15.6,42.87941,0.4504532,0.0,1,0,0,3.9023423,3.0057983,false,0.0
23909,-0.01171875,-0.021972656,-1.0351562,0.010642252,0.1990101,0.031926755,184.8,40.5,-15.6,42.87941,0.4504532,0.0,1,0,0,3.9023423,3.0057983,false,0.0
23909,-0.01171875,-0.021972656,-1.0351562,0.010642252,0.1990101,0.031926755,184.8,40.5,-15.6,42.87941,0.4504532,0.0,1,0,0,3.9023423,3.0057983,false,0.0
23909,-0.01171875,-0.021972656,-1.0351562,0.010642252,0.1990101,0.031926755,184.8,40.5,-15.6,42.87941,0.4504532,0.0,1,0,0,3.9023423,3.0057983,false,0.0
23909,-0.01171875,-0.021972656,-1.0351562,0.010642252,0.1990101,0.031926755,184.8,40.5,-15.6,42.87941,0.4504532,0.0,1,0,0,3.9023423,3.0057983,false,0.0
23909,-0.01171875,-0.021972656,-1.0351562,0.010642252,0.1990101,0.031926755,184.8,40.5,-15.6,42.87941,0.4504532,0.0,1,0,0,3.9023423,3.0057983,false,0.0
23909,-0.01171875,-0.021972656,-1.0351562,0.010642252,0.1990101,0.031926755,184.8,40.5,-15.6,42.87941,0.4504532,0.0,1,0,0,3.9023423,3.0057983,false,0.0
23909,-0.01171875,-0.021972656,-1.0351562,0.010642252,0.1990101,0.031926755,184.8,40.5,-15.6,42.87941,0.4504532,0.0,1,0,0,3.9023423,3.0057983,false,0.0
23909,-0.01171875,-0.021972656,-1.0351562,0.010642252,0.1990101,0.031926755,184.8,40.5,-15.6,42.87941,0.4504532,0.0,1,0,0,3.9023423,3.0057983,false,0.0
23909,-0.01171875,-0.021972656,-1.0351562,0.010642252,0.1990101,0.031926755,184.8,40.5,-15.6,42.87941,0.4504532,0.0,1,0,0,3.9023423,3.0057983,false,0.0
23909,-0.01171875,-0.021972656,-1.0351562,0.010642252,0.1990101,0.031926755,184.8,40.5,-15.6,42.87941,0.4504532,0.0,1,0,0,3.9023423,3.0057983,false,0.0
23909,-0.01171875,-0.021972656,-1.0351562,0.010642252,0.1990101,0.031926755,184.8,40.5,-15.6,42.87941,0.4504532,0.0,1,0,0,3.9023423,3.0057983,false,0.0
23909,-0.01171875,-0.021972656,-1.0351562,0.010642252,0.1990101,0.031926755,184.8,40.5,-15.6,42.87941,0.4504532,0.0,1,0,0,3.9023423,3.0057983,false,0.0
23909,-0.01171875,-0.021972656,-1.0351562,0.010642252,0.1990101,0.031926755,184.8,40.5,-15.6,42.87941,0.4504532,0.0,1,0,0,3.9023423,3.0057983,false,0.0
23909,-0.01171875,-0.021972656,-1.0351562,0.010642252,0.1990101,0.031926755,184.8,40.5,-15.6,42.87941,0.4504532,0.0,1,0,0,3.9023423,3.0057983,false,0.0
23909,-0.01171875,-0.021972656,-1.0351562,0.010642252,0.1990101,0.031926755,184.8,40.5,-15.6,42.87941,0.4504532,0.0,1,0,0,3.9023423,3.0057983,false,0.0
23909,-0.01171875,-0.021972656,-1.0351562,0.010642252,0.1990101,0.031926755,184.8,40.5,-15.6,42.87941,0.4504532,0.0,1,0,0,3.9023423,3.0057983,false,0.0
23909,-0.01171875,-0.021972656,-1.0351562,0.010642252,0.1990101,0.031926755,184.8,40.5,-15.6,42.87941,0.4504532,0.0,1,0,0,3.9023423,3.0057983,false,0.0
23909,-0.01171875,-0.021972656,-1.0351562,0.010642252,0.1990101,0.031926755,184.8,40.5,-15.6,42.87941,0.4504532,0.0,1,0,0,3.9023423,3.0057983,false,0.0
23909,-0.01171875,-0.021972656,-1.0351562,0.010642252,0.1990101,0.031926755,184.8,40.5,-15.6,42.87941,0.4504532,0.0,1,0,0,3.9023423,3.0057983,false,0.0
23909,-0.01171875,-0.021972656,-1.0351562,0.010642252,0.1990101,0.031926755,184.8,40.5,-15.6,42.87941,0.4504532,0.0,1,0,0,3.9023423,3.0057983,false,0.0
23909,-0.01171875,-0.021972656,-1.0351562,0.010642252,0.1990101,0.031926755,184.8,40.5,-15.6,42.87941,0.4504532,0.0,1,0,0,3.9023423,3.0057983,false,0.0
23909,-0.01171875,-0.021972656,-1.0351562,0.010642252,0.1990101,0.031926755,184.8,40.5,-15.6,42.87941,0.4504532,0.0,1,0,0,3.9023423,3.0057983,false,0.0
23909,-0.01171875,-0.021972656,-1.0351562,0.010642252,0.1990101,0.031926755,184.8,40.5,-15.6,42.87941,0.4504532,0.0,1,0,0,3.9023423,3.0057983,false,0.0
23909,-0.01171875,-0.021972656,-1.0351562,0.010642252,0.1990101,0.031926755,184.8,40.5,-15.6,42.87941,0.4504532,0.0,1,0,0,3.9023423,3.0057983,false,0.0
23909,-0.01171875,-0.021972656,-1.0351562,0.010642252,0.1990101,0.031926755,184.8,40.5,-15.6,42.87941,0.4504532,0.0,1,0,0,3.9023423,3.0057983,false,0.0
23909,-0.0078125,-0.025390625,-1.0297852,0.009578027,0.1990101,0.030862529,186.6,40.800003,-19.5,42.85,0.4504532,0.0,1,0,0,3.9081407,3.0116732,false,0.0
23957,-0.0078125,-0.025390625,-1.0297852,0.009578027,0.1990101,0.030862529,186.6,40.800003,-19.5,42.85,0.4504532,0.0,1,0,0,3.9081407,3.0116732,false,0.0
23957,-0.0078125,-0.025390625,-1.0297852,0.009578027,0.1990101,0.030862529,186.6,40.800003,-19.5,42.85,0.4504532,0.0,1,0,0,3.9081407,3.0116732,false,0.0
23957,-0.0078125,-0.025390625,-1.0297852,0.009578027,0.1990101,0.030862529,186.6,40.800003,-19.5,42.85,0.4504532,0.0,1,0,0,3.9081407,3.0116732,false,0.0
23957,-0.0078125,-0.025390625,-1.0297852,0.009578027,0.1990101,0.030862529,186.6,40.800003,-19.5,42.85,0.4504532,0.0,1,0,0,3.9081407,3.0116732,false,0.0
23957,-0.0078125,-0.025390625,-1.0297852,0.009578027,0.1990101,0.030862529,186.6,40.800003,-19.5,42.85,0.4504532,0.0,1,0,0,3.9081407,3.0116732,false,0.0
23957,-0.0078125,-0.025390625,-1.0297852,0.009578027,0.1990101,0.030862529,186.6,40.800003,-19.5,42.85,0.4504532,0.0,1,0,0,3.9081407,3.0116732,false,0.0
23957,-0.0078125,-0.025390625,-1.0297852,0.009578027,0.1990101,0.030862529,186.6,40.800003,-19.5,42.85,0.4504532,0.0,1,0,0,3.9081407,3.0116732,false,0.0
23957,-0.0078125,-0.025390625,-1.0297852,0.009578027,0.1990101,0.030862529,186.6,40.800003,-19.5,42.85,0.4504532,0.0,1,0,0,3.9081407,3.0116732,false,0.0
23957,-0.0078125,-0.025390625,-1.0297852,0.009578027,0.1990101,0.030862529,186.6,40.800003,-19.5,42.85,0.4504532,0.0,1,0,0,3.9081407,3.0116732,false,0.0
23957,-0.0078125,-0.025390625,-1.0297852,0.009578027,0.1990101,0.030862529,186.6,40.800003,-19.5,42.85,0.4504532,0.0,1,0,0,3.9081407,3.0116732,false,0.0
23957,-0.0078125,-0.025390625,-1.0297852,0.009578027,0.1990101,0.030862529,186.6,40.800003,-19.5,42.85,0.4504532,0.0,1,0,0,3.9081407,3.0116732,false,0.0
23957,-0.0078125,-0.025390625,-1.0297852,0.009578027,0.1990101,0.030862529,186.6,40.800003,-19.5,42.85,0.4504532,0.0,1,0,0,3.9081407,3.0116732,false,0.0
23957,-0.0078125,-0.025390625,-1.0297852,0.009578027,0.1990101,0.030862529,186.6,40.800003,-19.5,42.85,0.4504532,0.0,1,0,0,3.9081407,3.0116732,false,0.0
23957,-0.0078125,-0.025390625,-1.0297852,0.009578027,0.1990101,0.030862529,186.6,40.800003,-19.5,42.85,0.4504532,0.0,1,0,0,3.9081407,3.0116732,false,0.0
23957,-0.0078125,-0.025390625,-1.0297852,0.009578027,0.1990101,0.030862529,186.6,40.800003,-19.5,42.85,0.4504532,0.0,1,0,0,3.9081407,3.0116732,false,0.0
23957,-0.0078125,-0.025390625,-1.0297852,0.009578027,0.1990101,0.030862529,186.6,40.800003,-19.5,42.85,0.4504532,0.0,1,0,0,3.9081407,3.0116732,false,0.0
23957,-0.0078125,-0.025390625,-1.0297852,0.009578027,0.1990101,0.030862529,186.6,40.800003,-19.5,42.85,0.4504532,0.0,1,0,0,3.9081407,3.0116732,false,0.0
23957,-0.0078125,-0.025390625,-1.0297852,0.009578027,0.1990101,0.030862529,186.6,40.800003,-19.5,42.85,0.4504532,0.0,1,0,0,3.9081407,3.0116732,false,0.0
23957,-0.0078125,-0.025390625,-1.0297852,0.009578027,0.1990101,0.030862529,186.6,40.800003,-19.5,42.85,0.4504532,0.0,1,0,0,3.9081407,3.0116732,false,0.0
23957,-0.0078125,-0.025390625,-1.0297852,0.009578027,0.1990101,0.030862529,186.6,40.800003,-19.5,42.85,0.4504532,0.0,1,0,0,3.9081407,3.0116732,false,0.0
23957,-0.0078125,-0.025390625,-1.0297852,0.009578027,0.1990101,0.030862529,186.6,40.800003,-19.5,42.85,0.4504532,0.0,1,0,0,3.9081407,3.0116732,false,0.0
23957,-0.0078125,-0.025390625,-1.0297852,0.009578027,0.1990101,0.030862529,186.6,40.800003,-19.5,42.85,0.4504532,0.0,1,0,0,3.9081407,3.0116732,false,0.0
23957,-0.0078125,-0.025390625,-1.0297852,0.009578027,0.1990101,0.030862529,186.6,40.800003,-19.5,42.85,0.4504532,0.0,1,0,0,3.9081407,3.0116732,false,0.0
23957,-0.0078125,-0.025390625,-1.0297852,0.009578027,0.1990101,0.030862529,186.6,40.800003,-19.5,42.85,0.4504532,0.0,1,0,0,3.9081407,3.0116732,false,0.0
23957,-0.0078125,-0.025390625,-1.0297852,0.009578027,0.1990101,0.030862529,186.6,40.800003,-19.5,42.85,0.4504532,0.0,1,0,0,3.9081407,3.0116732,false,0.0
23957,-0.0078125,-0.025390625,-1.0297852,0.009578027,0.1990101,0.030862529,186.6,40.800003,-19.5,42.85,0.4504532,0.0,1,0,0,3.9081407,3.0116732,false,0.0
23957,-0.0078125,-0.025390625,-1.0297852,0.009578027,0.1990101,0.030862529,186.6,40.800003,-19.5,42.85,0.4504532,0.0,1,0,0,3.9081407,3.0116732,false,0.0
23958,-0.0078125,-0.025390625,-1.0297852,0.009578027,0.1990101,0.030862529,186.6,40.800003,-19.5,42.85,0.4504532,0.0,1,0,0,3.9081407,3.0116732,false,0.0
23958,-0.0078125,-0.025390625,-1.0297852,0.009578027,0.1990101,0.030862529,186.6,40.800003,-19.5,42.85,0.4504532,0.0,1,0,0,3.9081407,3.0116732,false,0.0
23958,-0.0078125,-0.025390625,-1.0297852,0.009578027,0.1990101,0.030862529,186.6,40.800003,-19.5,42.85,0.4504532,0.0,1,0,0,3.9081407,3.0116732,false,0.0
23958,-0.0078125,-0.025390625,-1.0297852,0.009578027,0.1990101,0.030862529,186.6,40.800003,-19.5,42.85,0.4504532,0.0,1,0,0,3.9081407,3.0116732,false,0.0
23958,-0.0078125,-0.025390625,-1.0297852,0.009578027,0.1990101,0.030862529,186.6,40.800003,-19.5,42.85,0.4504532,0.0,1,0,0,3.9081407,3.0116732,false,0.0
23958,-0.0078125,-0.025390625,-1.0297852,0.009578027,0.1990101,0.030862529,186.6,40.800003,-19.5,42.85,0.4504532,0.0,1,0,0,3.9081407,3.0116732,false,0.0
23958,-0.0078125,-0.025390625,-1.0297852,0.009578027,0.1990101,0.030862529,186.6,40.800003,-19.5,42.85,0.4504532,0.0,1,0,0,3.9081407,3.0116732,false,0.0
23958,-0.0078125,-0.025390625,-1.0297852,0.009578027,0.1990101,0.030862529,186.6,40.800003,-19.5,42.85,0.4504532,0.0,1,0,0,3.9081407,3.0116732,false,0.0
23958,-0.0078125,-0.025390625,-1.0297852,0.009578027,0.1990101,0.030862529,186.6,40.800003,-19.5,42.85,0.4504532,0.0,1,0,0,3.9081407,3.0116732,false,0.0
23958,-0.0078125,-0.025390625,-1.0297852,0.009578027,0.1990101,0.030862529,186.6,40.800003,-19.5,42.85,0.4504532,0.0,1,0,0,3.9081407,3.0116732,false,0.0
23958,-0.0078125,-0.025390625,-1.0297852,0.009578027,0.1990101,0.030862529,186.6,40.800003,-19.5,42.85,0.4504532,0.0,1,0,0,3.9081407,3.0116732,false,0.0
23958,-0.0078125,-0.025390625,-1.0297852,0.009578027,0.1990101,0.030862529,186.6,40.800003,-19.5,42.85,0.4504532,0.0,1,0,0,3.9081407,3.0116732,false,0.0
23958,-0.0078125,-0.025390625,-1.0297852,0.009578027,0.1990101,0.030862529,186.6,40.800003,-19.5,42.85,0.4504532,0.0,1,0,0,3.9081407,3.0116732,false,0.0
23958,-0.0078125,-0.025390625,-1.0297852,0.009578027,0.1990101,0.030862529,186.6,40.800003,-19.5,42.85,0.4504532,0.0,1,0,0,3.9081407,3.0116732,false,0.0
23963,-0.0078125,-0.025390625,-1.0297852,0.009578027,0.1990101,0.030862529,186.6,40.800003,-19.5,42.85,0.4504532,0.0,1,0,0,3.9081407,3.0116732,false,0.0
23963,-0.01171875,-0.0234375,-1.0385742,0.008513802,0.1979459,0.030862529,181.20001,41.7,-21.300001,42.876472,0.4504532,0.0,1,0,0,3.9023423,3.0116732,false,0.0
24007,-0.01171875,-0.0234375,-1.0385742,0.008513802,0.1979459,0.030862529,181.20001,41.7,-21.300001,42.876472,0.4504532,0.0,1,0,0,3.9023423,3.0116732,false,0.0
24007,-0.01171875,-0.0234375,-1.0385742,0.008513802,0.1979459,0.030862529,181.20001,41.7,-21.300001,42.876472,0.4504532,0.0,1,0,0,3.9023423,3.0116732,false,0.0
24007,-0.01171875,-0.0234375,-1.0385742,0.008513802,0.1979459,0.030862529,181.20001,41.7,-21.300001,42.876472,0.4504532,0.0,1,0,0,3.9023423,3.0116732,false,0.0
24007,-0.01171875,-0.0234375,-1.0385742,0.008513802,0.1979459,0.030862529,181.20001,41.7,-21.300001,42.876472,0.4504532,0.0,1,0,0,3.9023423,3.0116732,false,0.0
24007,-0.01171875,-0.0234375,-1.0385742,0.008513802,0.1979459,0.030862529,181.20001,41.7,-21.300001,42.876472,0.4504532,0.0,1,0,0,3.9023423,3.0116732,false,0.0
24008,-0.01171875,-0.0234375,-1.0385742,0.008513802,0.1979459,0.030862529,181.20001,41.7,-21.300001,42.876472,0.4504532,0.0,1,0,0,3.9023423,3.0116732,false,0.0
24008,-0.01171875,-0.0234375,-1.0385742,0.008513802,0.1979459,0.030862529,181.20001,41.7,-21.300001,42.876472,0.4504532,0.0,1,0,0,3.9023423,3.0116732,false,0.0
24008,-0.01171875,-0.0234375,-1.0385742,0.008513802,0.1979459,0.030862529,181.20001,41.7,-21.300001,42.876472,0.4504532,0.0,1,0,0,3.9023423,3.0116732,false,0.0
24008,-0.01171875,-0.0234375,-1.0385742,0.008513802,0.1979459,0.030862529,181.20001,41.7,-21.300001,42.876472,0.4504532,0.0,1,0,0,3.9023423,3.0116732,false,0.0
24008,-0.01171875,-0.0234375,-1.0385742,0.008513802,0.1979459,0.030862529,181.20001,41.7,-21.300001,42.876472,0.4504532,0.0,1,0,0,3.9023423,3.0116732,false,0.0
24008,-0.01171875,-0.0234375,-1.0385742,0.008513802,0.1979459,0.030862529,181.20001,41.7,-21.300001,42.876472,0.4504532,0.0,1,0,0,3.9023423,3.0116732,false,0.0
24008,-0.01171875,-0.0234375,-1.0385742,0.008513802,0.1979459,0.030862529,181.20001,41.7,-21.300001,42.876472,0.4504532,0.0,1,0,0,3.9023423,3.0116732,false,0.0
24008,-0.01171875,-0.0234375,-1.0385742,0.008513802,0.1979459,0.030862529,181.20001,41.7,-21.300001,42.876472,0.4504532,0.0,1,0,0,3.9023423,3.0116732,false,0.0
24008,-0.01171875,-0.0234375,-1.0385742,0.008513802,0.1979459,0.030862529,181.20001,41.7,-21.300001,42.876472,0.4504532,0.0,1,0,0,3.9023423,3.0116732,false,0.0
24008,-0.01171875,-0.0234375,-1.0385742,0.008513802,0.1979459,0.030862529,181.20001,41.7,-21.300001,42.876472,0.4504532,0.0,1,0,0,3.9023423,3.0116732,false,0.0
24008,-0.01171875,-0.0234375,-1.0385742,0.008513802,0.1979459,0.030862529,181.20001,41.7,-21.300001,42.876472,0.4504532,0.0,1,0,0,3.9023423,3.0116732,false,0.0
24009,-0.01171875,-0.0234375,-1.0385742,0.008513802,0.1979459,0.030862529,181.20001,41.7,-21.300001,42.876472,0.4504532,0.0,1,0,0,3.9023423,3.0116732,false,0.0
24009,-0.01171875,-0.0234375,-1.0385742,0.008513802,0.1979459,0.030862529,181.20001,41.7,-21.300001,42.876472,0.4504532,0.0,1,0,0,3.9023423,3.0116732,false,0.0
24009,-0.01171875,-0.0234375,-1.0385742,0.008513802,0.1979459,0.030862529,181.20001,41.7,-21.300001,42.876472,0.4504532,0.0,1,0,0,3.9023423,3.0116732,false,0.0
24009,-0.01171875,-0.0234375,-1.0385742,0.008513802,0.1979459,0.030862529,181.20001,41.7,-21.300001,42.876472,0.4504532,0.0,1,0,0,3.9023423,3.0116732,false,0.0
24009,-0.01171875,-0.0234375,-1.0385742,0.008513802,0.1979459,0.030862529,181.20001,41.7,-21.300001,42.876472,0.4504532,0.0,1,0,0,3.9023423,3.0116732,false,0.0
24009,-0.01171875,-0.0234375,-1.0385742,0.008513802,0.1979459,0.030862529,181.20001,41.7,-21.300001,42.876472,0.4504532,0.0,1,0,0,3.9023423,3.0116732,false,0.0
24009,-0.01171875,-0.0234375,-1.0385742,0.008513802,0.1979459,0.030862529,181.20001,41.7,-21.300001,42.876472,0.4504532,0.0,1,0,0,3.9023423,3.0116732,false,0.0
24009,-0.01171875,-0.0234375,-1.0385742,0.008513802,0.1979459,0.030862529,181.20001,41.7,-21.300001,42.876472,0.4504532,0.0,1,0,0,3.9023423,3.0116732,false,0.0
24009,-0.01171875,-0.0234375,-1.0385742,0.008513802,0.1979459,0.030862529,181.20001,41.7,-21.300001,42.876472,0.4504532,0.0,1,0,0,3.9023423,3.0116732,false,0.0
24009,-0.01171875,-0.0234375,-1.0385742,0.008513802,0.1979459,0.030862529,181.20001,41.7,-21.300001,42.876472,0.4504532,0.0,1,0,0,3.9023423,3.0116732,false,0.0
24009,-0.01171875,-0.0234375,-1.0385742,0.008513802,0.1979459,0.030862529,181.20001,41.7,-21.300001,42.876472,0.4504532,0.0,1,0,0,3.9023423,3.0116732,false,0.0
24009,-0.01171875,-0.0234375,-1.0385742,0.008513802,0.1979459,0.030862529,181.20001,41.7,-21.300001,42.876472,0.4504532,0.0,1,0,0,3.9023423,3.0116732,false,0.0
24009,-0.01171875,-0.0234375,-1.0385742,0.008513802,0.1979459,0.030862529,181.20001,41.7,-21.300001,42.876472,0.4504532,0.0,1,0,0,3.9023423,3.0116732,false,0.0
24009,-0.01171875,-0.0234375,-1.0385742,0.008513802,0.1979459,0.030862529,181.20001,41.7,-21.300001,42.876472,0.4504532,0.0,1,0,0,3.9023423,3.0116732,false,0.0
24009,-0.01171875,-0.0234375,-1.0385742,0.008513802,0.1979459,0.030862529,181.20001,41.7,-21.300001,42.876472,0.4504532,0.0,1,0,0,3.9023423,3.0116732,false,0.0
24009,-0.01171875,-0.0234375,-1.0385742,0.008513802,0.1979459,0.030862529,181.20001,41.7,-21.300001,42.876472,0.4504532,0.0,1,0,0,3.9023423,3.0116732,false,0.0
24009,-0.01171875,-0.0234375,-1.0385742,0.008513802,0.1979459,0.030862529,181.20001,41.7,-21.300001,42.876472,0.4504532,0.0,1,0,0,3.9023423,3.0116732,false,0.0
24009,-0.01171875,-0.0234375,-1.0385742,0.008513802,0.1979459,0.030862529,181.20001,41.7,-21.300001,42.876472,0.4504532,0.0,1,0,0,3.9023423,3.0116732,false,0.0
24009,-0.01171875,-0.0234375,-1.0385742,0.008513802,0.1979459,0.030862529,181.20001,41.7,-21.300001,42.876472,0.4504532,0.0,1,0,0,3.9023423,3.0116732,false,0.0
24009,-0.01171875,-0.0234375,-1.0385742,0.008513802,0.1979459,0.030862529,181.20001,41.7,-21.300001,42.876472,0.4504532,0.0,1,0,0,3.9023423,3.0116732,false,0.0
24009,-0.01171875,-0.0234375,-1.0385742,0.008513802,0.1979459,0.030862529,181.20001,41.7,-21.300001,42.876472,0.4504532,0.0,1,0,0,3.9023423,3.0116732,false,0.0
24009,-0.01171875,-0.0234375,-1.0385742,0.008513802,0.1979459,0.030862529,181.20001,41.7,-21.300001,42.876472,0.4504532,0.0,1,0,0,3.9023423,3.0116732,false,0.0
24009,-0.01171875,-0.0234375,-1.0385742,0.008513802,0.1979459,0.030862529,181.20001,41.7,-21.300001,42.876472,0.4504532,0.0,1,0,0,3.9023423,3.0116732,false,0.0
24009,-0.01171875,-0.0234375,-1.0385742,0.008513802,0.1979459,0.030862529,181.20001,41.7,-21.300001,42.876472,0.4504532,0.0,1,0,0,3.9023423,3.0116732,false,0.0
24010,-0.01171875,-0.0234375,-1.0385742,0.008513802,0.1979459,0.030862529,181.20001,41.7,-21.300001,42.876472,0.4504532,0.0,1,0,0,3.9023423,3.0116732,false,0.0
24010,-0.01171875,-0.0234375,-1.0385742,0.008513802,0.1979459,0.030862529,181.20001,41.7,-21.300001,42.876472,0.4504532,0.0,1,0,0,3.9023423,3.0116732,false,0.0
24010,-0.008300781,-0.026855469,-1.0341797,0.010642252,0.19688165,0.029798305,185.1,40.800003,-17.400002,42.882355,0.4504532,0.0,1,0,0,3.9023423,3.0175478,false,0.0
24056,-0.008300781,-0.026855469,-1.0341797,0.010642252,0.19688165,0.029798305,185.1,40.800003,-17.400002,42.882355,0.4504532,0.0,1,0,0,3.9023423,3.0175478,false,0.0
24056,-0.008300781,-0.026855469,-1.0341797,0.010642252,0.19688165,0.029798305,185.1,40.800003,-17.400002,42.882355,0.4504532,0.0,1,0,0,3.9023423,3.0175478,false,0.0
24056,-0.008300781,-0.026855469,-1.0341797,0.010642252,0.19688165,0.029798305,185.1,40.800003,-17.400002,42.882355,0.4504532,0.0,1,0,0,3.9023423,3.0175478,false,0.0
24056,-0.008300781,-0.026855469,-1.0341797,0.010642252,0.19688165,0.029798305,185.1,40.800003,-17.400002,42.882355,0.4504532,0.0,1,0,0,3.9023423,3.0175478,false,0.0
24056,-0.008300781,-0.026855469,-1.0341797,0.010642252,0.19688165,0.029798305,185.1,40.800003,-17.400002,42.882355,0.4504532,0.0,1,0,0,3.9023423,3.0175478,false,0.0
24056,-0.008300781,-0.026855469,-1.0341797,0.010642252,0.19688165,0.029798305,185.1,40.800003,-17.400002,42.882355,0.4504532,0.0,1,0,0,3.9023423,3.0175478,false,0.0
24056,-0.008300781,-0.026855469,-1.0341797,0.010642252,0.19688165,0.029798305,185.1,40.800003,-17.400002,42.882355,0.4504532,0.0,1,0,0,3.9023423,3.0175478,false,0.0
24056,-0.008300781,-0.026855469,-1.0341797,0.010642252,0.19688165,0.029798305,185.1,40.800003,-17.400002,42.882355,0.4504532,0.0,1,0,0,3.9023423,3.0175478,false,0.0
24056,-0.008300781,-0.026855469,-1.0341797,0.010642252,0.19688165,0.029798305,185.1,40.800003,-17.400002,42.882355,0.4504532,0.0,1,0,0,3.9023423,3.0175478,false,0.0
24056,-0.008300781,-0.026855469,-1.0341797,0.010642252,0.19688165,0.029798305,185.1,40.800003,-17.400002,42.882355,0.4504532,0.0,1,0,0,3.9023423,3.0175478,false,0.0
24056,-0.008300781,-0.026855469,-1.0341797,0.010642252,0.19688165,0.029798305,185.1,40.800003,-17.400002,42.882355,0.4504532,0.0,1,0,0,3.9023423,3.0175478,false,0.0
24056,-0.008300781,-0.026855469,-1.0341797,0.010642252,0.19688165,0.029798305,185.1,40.800003,-17.400002,42.882355,0.4504532,0.0,1,0,0,3.9023423,3.0175478,false,0.0
24056,-0.008300781,-0.026855469,-1.0341797,0.010642252,0.19688165,0.029798305,185.1,40.800003,-17.400002,42.882355,0.4504532,0.0,1,0,0,3.9023423,3.0175478,false,0.0
24056,-0.008300781,-0.026855469,-1.0341797,0.010642252,0.19688165,0.029798305,185.1,40.800003,-17.400002,42.882355,0.4504532,0.0,1,0,0,3.9023423,3.0175478,false,0.0
24056,-0.008300781,-0.026855469,-1.0341797,0.010642252,0.19688165,0.029798305,185.1,40.800003,-17.400002,42.882355,0.4504532,0.0,1,0,0,3.9023423,3.0175478,false,0.0
24056,-0.008300781,-0.026855469,-1.0341797,0.010642252,0.19688165,0.029798305,185.1,40.800003,-17.400002,42.882355,0.4504532,0.0,1,0,0,3.9023423,3.0175478,false,0.0
24056,-0.008300781,-0.026855469,-1.0341797,0.010642252,0.19688165,0.029798305,185.1,40.800003,-17.400002,42.882355,0.4504532,0.0,1,0,0,3.9023423,3.0175478,false,0.0
24056,-0.008300781,-0.026855469,-1.0341797,0.010642252,0.19688165,0.029798305,185.1,40.800003,-17.400002,42.882355,0.4504532,0.0,1,0,0,3.9023423,3.0175478,false,0.0
24056,-0.008300781,-0.026855469,-1.0341797,0.010642252,0.19688165,0.029798305,185.1,40.800003,-17.400002,42.882355,0.4504532,0.0,1,0,0,3.9023423,3.0175478,false,0.0
24056,-0.008300781,-0.026855469,-1.0341797,0.010642252,0.19688165,0.029798305,185.1,40.800003,-17.400002,42.882355,0.4504532,0.0,1,0,0,3.9023423,3.0175478,false,0.0
24056,-0.008300781,-0.026855469,-1.0341797,0.010642252,0.19688165,0.029798305,185.1,40.800003,-17.400002,42.882355,0.4504532,0.0,1,0,0,3.9023423,3.0175478,false,0.0
24056,-0.008300781,-0.026855469,-1.0341797,0.010642252,0.19688165,0.029798305,185.1,40.800003,-17.400002,42.882355,0.4504532,0.0,1,0,0,3.9023423,3.0175478,false,0.0
24056,-0.008300781,-0.026855469,-1.0341797,0.010642252,0.19688165,0.029798305,185.1,40.800003,-17.400002,42.882355,0.4504532,0.0,1,0,0,3.9023423,3.0175478,false,0.0
24056,-0.008300781,-0.026855469,-1.0341797,0.010642252,0.19688165,0.029798305,185.1,40.800003,-17.400002,42.882355,0.4504532,0.0,1,0,0,3.9023423,3.0175478,false,0.0
24066,-0.008300781,-0.026855469,-1.0341797,0.010642252,0.19688165,0.029798305,185.1,40.800003,-17.400002,42.882355,0.4504532,0.0,1,0,0,3.9023423,3.0175478,false,0.0
24066,-0.008300781,-0.026855469,-1.0341797,0.010642252,0.19688165,0.029798305,185.1,40.800003,-17.400002,42.882355,0.4504532,0.0,1,0,0,3.9023423,3.0175478,false,0.0
24066,-0.008300781,-0.026855469,-1.0341797,0.010642252,0.19688165,0.029798305,185.1,40.800003,-17.400002,42.882355,0.4504532,0.0,1,0,0,3.9023423,3.0175478,false,0.0
24066,-0.008300781,-0.026855469,-1.0341797,0.010642252,0.19688165,0.029798305,185.1,40.800003,-17.400002,42.882355,0.4504532,0.0,1,0,0,3.9023423,3.0175478,false,0.0
24066,-0.008300781,-0.026855469,-1.0341797,0.010642252,0.19688165,0.029798305,185.1,40.800003,-17.400002,42.882355,0.4504532,0.0,1,0,0,3.9023423,3.0175478,false,0.0
24066,-0.008300781,-0.026855469,-1.0341797,0.010642252,0.19688165,0.029798305,185.1,40.800003,-17.400002,42.882355,0.4504532,0.0,1,0,0,3.9023423,3.0175478,false,0.0
24066,-0.008300781,-0.026855469,-1.0341797,0.010642252,0.19688165,0.029798305,185.1,40.800003,-17.400002,42.882355,0.4504532,0.0,1,0,0,3.9023423,3.0175478,false,0.0
24066,-0.008300781,-0.026855469,-1.0341797,0.010642252,0.19688165,0.029798305,185.1,40.800003,-17.400002,42.882355,0.4504532,0.0,1,0,0,3.9023423,3.0175478,false,0.0
24066,-0.008300781,-0.026855469,-1.0341797,0.010642252,0.19688165,0.029798305,185.1,40.800003,-17.400002,42.882355,0.4504532,0.0,1,0,0,3.9023423,3.0175478,false,0.0
24067,-0.008300781,-0.026855469,-1.0341797,0.010642252,0.19688165,0.029798305,185.1,40.800003,-17.400002,42.882355,0.4504532,0.0,1,0,0,3.9023423,3.0175478,false,0.0
24067,-0.008300781,-0.026855469,-1.0341797,0.010642252,0.19688165,0.029798305,185.1,40.800003,-17.400002,42.882355,0.4504532,0.0,1,0,0,3.9023423,3.0175478,false,0.0
24067,-0.008300781,-0.026855469,-1.0341797,0.010642252,0.19688165,0.029798305,185.1,40.800003,-17.400002,42.882355,0.4504532,0.0,1,0,0,3.9023423,3.0175478,false,0.0
24067,-0.008300781,-0.026855469,-1.0341797,0.010642252,0.19688165,0.029798305,185.1,40.800003,-17.400002,42.882355,0.4504532,0.0,1,0,0,3.9023423,3.0175478,false,0.0
24067,-0.008300781,-0.026855469,-1.0341797,0.010642252,0.19688165,0.029798305,185.1,40.800003,-17.400002,42.882355,0.4504532,0.0,1,0,0,3.9023423,3.0175478,false,0.0
24067,-0.008300781,-0.026855469,-1.0341797,0.010642252,0.19688165,0.029798305,185.1,40.800003,-17.400002,42.882355,0.4504532,0.0,1,0,0,3.9023423,3.0175478,false,0.0
24067,-0.008300781,-0.026855469,-1.0341797,0.010642252,0.19688165,0.029798305,185.1,40.800003,-17.400002,42.882355,0.4504532,0.0,1,0,0,3.9023423,3.0175478,false,0.0
24067,-0.008300781,-0.026855469,-1.0341797,0.010642252,0.19688165,0.029798305,185.1,40.800003,-17.400002,42.882355,0.4504532,0.0,1,0,0,3.9023423,3.0175478,false,0.0
24067,-0.008300781,-0.026855469,-1.0341797,0.010642252,0.19688165,0.029798305,185.1,40.800003,-17.400002,42.882355,0.4504532,0.0,1,0,0,3.9023423,3.0175478,false,0.0
24067,-0.0087890625,-0.022460938,-1.0356445,0.010642252,0.19688165,0.030862529,184.20001,42.600002,-19.800001,42.885292,0.4504532,0.0,1,0,0,3.9081407,3.0116732,false,0.0
24110,-0.0087890625,-0.022460938,-1.0356445,0.010642252,0.19688165,0.030862529,184.20001,42.600002,-19.800001,42.885292,0.4504532,0.0,1,0,0,3.9081407,3.0116732,false,0.0
24110,-0.0087890625,-0.022460938,-1.0356445,0.010642252,0.19688165,0.030862529,184.20001,42.600002,-19.800001,42.885292,0.4504532,0.0,1,0,0,3.9081407,3.0116732,false,0.0
24110,-0.0087890625,-0.022460938,-1.0356445,0.010642252,0.19688165,0.030862529,184.20001,42.600002,-19.800001,42.885292,0.4504532,0.0,1,0,0,3.9081407,3.0116732,false,0.0
24110,-0.0087890625,-0.022460938,-1.0356445,0.010642252,0.19688165,0.030862529,184.20001,42.600002,-19.800001,42.885292,0.4504532,0.0,1,0,0,3.9081407,3.0116732,false,0.0
24110,-0.0087890625,-0.022460938,-1.0356445,0.010642252,0.19688165,0.030862529,184.20001,42.600002,-19.800001,42.885292,0.4504532,0.0,1,0,0,3.9081407,3.0116732,false,0.0
24110,-0.0087890625,-0.022460938,-1.0356445,0.010642252,0.19688165,0.030862529,184.20001,42.600002,-19.800001,42.885292,0.4504532,0.0,1,0,0,3.9081407,3.0116732,false,0.0
24110,-0.0087890625,-0.022460938,-1.0356445,0.010642252,0.19688165,0.030862529,184.20001,42.600002,-19.800001,42.885292,0.4504532,0.0,1,0,0,3.9081407,3.0116732,false,0.0
24110,-0.0087890625,-0.022460938,-1.0356445,0.010642252,0.19688165,0.030862529,184.20001,42.600002,-19.800001,42.885292,0.4504532,0.0,1,0,0,3.9081407,3.0116732,false,0.0
24110,-0.0087890625,-0.022460938,-1.0356445,0.010642252,0.19688165,0.030862529,184.20001,42.600002,-19.800001,42.885292,0.4504532,0.0,1,0,0,3.9081407,3.0116732,false,0.0
24110,-0.0087890625,-0.022460938,-1.0356445,0.010642252,0.19688165,0.030862529,184.20001,42.600002,-19.800001,42.885292,0.4504532,0.0,1,0,0,3.9081407,3.0116732,false,0.0
24110,-0.0087890625,-0.022460938,-1.0356445,0.010642252,0.19688165,0.030862529,184.20001,42.600002,-19.800001,42.885292,0.4504532,0.0,1,0,0,3.9081407,3.0116732,false,0.0
24110,-0.0087890625,-0.022460938,-1.0356445,0.010642252,0.19688165,0.030862529,184.20001,42.600002,-19.800001,42.885292,0.4504532,0.0,1,0,0,3.9081407,3.0116732,false,0.0
24110,-0.0087890625,-0.022460938,-1.0356445,0.010642252,0.19688165,0.030862529,184.20001,42.600002,-19.800001,42.885292,0.4504532,0.0,1,0,0,3.9081407,3.0116732,false,0.0
24110,-0.0087890625,-0.022460938,-1.0356445,0.010642252,0.19688165,0.030862529,184.20001,42.600002,-19.800001,42.885292,0.4504532,0.0,1,0,0,3.9081407,3.0116732,false,0.0
24110,-0.0087890625,-0.022460938,-1.0356445,0.010642252,0.19688165,0.030862529,184.20001,42.600002,-19.800001,42.885292,0.4504532,0.0,1,0,0,3.9081407,3.0116732,false,0.0
24110,-0.0087890625,-0.022460938,-1.0356445,0.010642252,0.19688165,0.030862529,184.20001,42.600002,-19.800001,42.885292,0.4504532,0.0,1,0,0,3.9081407,3.0116732,false,0.0
24110,-0.0087890625,-0.022460938,-1.0356445,0.010642252,0.19688165,0.030862529,184.20001,42.600002,-19.800001,42.885292,0.4504532,0.0,1,0,0,3.9081407,3.0116732,false,0.0
24110,-0.0087890625,-0.022460938,-1.0356445,0.010642252,0.19688165,0.030862529,184.20001,42.600002,-19.800001,42.885292,0.4504532,0.0,1,0,0,3.9081407,3.0116732,false,0.0
24110,-0.0087890625,-0.022460938,-1.0356445,0.010642252,0.19688165,0.030862529,184.20001,42.600002,-19.800001,42.885292,0.4504532,0.0,1,0,0,3.9081407,3.0116732,false,0.0
24110,-0.0087890625,-0.022460938,-1.0356445,0.010642252,0.19688165,0.030862529,184.20001,42.600002,-19.800001,42.885292,0.4504532,0.0,1,0,0,3.9081407,3.0116732,false,0.0
24110,-0.0087890625,-0.022460938,-1.0356445,0.010642252,0.19688165,0.030862529,184.20001,42.600002,-19.800001,42.885292,0.4504532,0.0,1,0,0,3.9081407,3.0116732,false,0.0
24110,-0.0087890625,-0.022460938,-1.0356445,0.010642252,0.19688165,0.030862529,184.20001,42.600002,-19.800001,42.885292,0.4504532,0.0,1,0,0,3.9081407,3.0116732,false,0.0
24110,-0.0087890625,-0.022460938,-1.0356445,0.010642252,0.19688165,0.030862529,184.20001,42.600002,-19.800001,42.885292,0.4504532,0.0,1,0,0,3.9081407,3.0116732,false,0.0
24110,-0.0087890625,-0.022460938,-1.0356445,0.010642252,0.19688165,0.030862529,184.20001,42.600002,-19.800001,42.885292,0.4504532,0.0,1,0,0,3.9081407,3.0116732,false,0.0
24110,-0.0087890625,-0.022460938,-1.0356445,0.010642252,0.19688165,0.030862529,184.20001,42.600002,-19.800001,42.885292,0.4504532,0.0,1,0,0,3.9081407,3.0116732,false,0.0
24111,-0.0087890625,-0.022460938,-1.0356445,0.010642252,0.19688165,0.030862529,184.20001,42.600002,-19.800001,42.885292,0.4504532,0.0,1,0,0,3.9081407,3.0116732,false,0.0
24111,-0.0087890625,-0.022460938,-1.0356445,0.010642252,0.19688165,0.030862529,184.20001,42.600002,-19.800001,42.885292,0.4504532,0.0,1,0,0,3.9081407,3.0116732,false,0.0
24111,-0.0087890625,-0.022460938,-1.0356445,0.010642252,0.19688165,0.030862529,184.20001,42.600002,-19.800001,42.885292,0.4504532,0.0,1,0,0,3.9081407,3.0116732,false,0.0
24111,-0.0087890625,-0.022460938,-1.0356445,0.010642252,0.19688165,0.030862529,184.20001,42.600002,-19.800001,42.885292,0.4504532,0.0,1,0,0,3.9081407,3.0116732,false,0.0
24111,-0.0087890625,-0.022460938,-1.0356445,0.010642252,0.19688165,0.030862529,184.20001,42.600002,-19.800001,42.885292,0.4504532,0.0,1,0,0,3.9081407,3.0116732,false,0.0
24111,-0.0087890625,-0.022460938,-1.0356445,0.010642252,0.19688165,0.030862529,184.20001,42.600002,-19.800001,42.885292,0.4504532,0.0,1,0,0,3.9081407,3.0116732,false,0.0
24111,-0.0087890625,-0.022460938,-1.0356445,0.010642252,0.19688165,0.030862529,184.20001,42.600002,-19.800001,42.885292,0.4504532,0.0,1,0,0,3.9081407,3.0116732,false,0.0
24111,-0.0087890625,-0.022460938,-1.0356445,0.010642252,0.19688165,0.030862529,184.20001,42.600002,-19.800001,42.885292,0.4504532,0.0,1,0,0,3.9081407,3.0116732,false,0.0
24111,-0.0087890625,-0.022460938,-1.0356445,0.010642252,0.19688165,0.030862529,184.20001,42.600002,-19.800001,42.885292,0.4504532,0.0,1,0,0,3.9081407,3.0116732,false,0.0
24111,-0.0087890625,-0.022460938,-1.0356445,0.010642252,0.19688165,0.030862529,184.20001,42.600002,-19.800001,42.885292,0.4504532,0.0,1,0,0,3.9081407,3.0116732,false,0.0
24111,-0.0087890625,-0.022460938,-1.0356445,0.010642252,0.19688165,0.030862529,184.20001,42.600002,-19.800001,42.885292,0.4504532,0.0,1,0,0,3.9081407,3.0116732,false,0.0
24111,-0.0087890625,-0.022460938,-1.0356445,0.010642252,0.19688165,0.030862529,184.20001,42.600002,-19.800001,42.885292,0.4504532,0.0,1,0,0,3.9081407,3.0116732,false,0.0
24111,-0.0087890625,-0.022460938,-1.0356445,0.010642252,0.19688165,0.030862529,184.20001,42.600002,-19.800001,42.885292,0.4504532,0.0,1,0,0,3.9081407,3.0116732,false,0.0
