timestamp_ms,accX,accY,accZ,omegaX,omegaY,omegaZ,magX,magY,magZ,temp,deg,duty,isStop,isCurve,isSlope,V_Lipo,V_Battery,isSlipping, slipMagnitude
16199,0.0,0.0,0.0,0.0,0.0,0.0,0.0,0.0,0.0,0.0,0.0,0.0,0,0,0,0.0,0.0,false,0.0
16199,0.0,0.0,0.0,0.0,0.0,0.0,0.0,0.0,0.0,0.0,0.0,0.0,0,0,0,0.0,0.0,false,0.0
16199,0.0,0.0,0.0,0.0,0.0,0.0,0.0,0.0,0.0,0.0,0.0,0.0,0,0,0,0.0,0.0,false,0.0
16199,0.0,0.0,0.0,0.0,0.0,0.0,0.0,0.0,0.0,0.0,0.0,0.0,0,0,0,0.0,0.0,false,0.0
16199,0.0,0.0,0.0,0.0,0.0,0.0,0.0,0.0,0.0,0.0,0.0,0.0,0,0,0,0.0,0.0,false,0.0
16199,0.0,0.0,0.0,0.0,0.0,0.0,0.0,0.0,0.0,0.0,0.0,0.0,0,0,0,0.0,0.0,false,0.0
16199,0.0,0.0,0.0,0.0,0.0,0.0,0.0,0.0,0.0,0.0,0.0,0.0,0,0,0,0.0,0.0,false,0.0
16199,0.0,0.0,0.0,0.0,0.0,0.0,0.0,0.0,0.0,0.0,0.0,0.0,0,0,0,0.0,0.0,false,0.0
16199,0.0,0.0,0.0,0.0,0.0,0.0,0.0,0.0,0.0,0.0,0.0,0.0,0,0,0,0.0,0.0,false,0.0
16199,0.0,0.0,0.0,0.0,0.0,0.0,0.0,0.0,0.0,0.0,0.0,0.0,0,0,0,0.0,0.0,false,0.0
16199,0.0,0.0,0.0,0.0,0.0,0.0,0.0,0.0,0.0,0.0,0.0,0.0,0,0,0,0.0,0.0,false,0.0
16199,0.0,0.0,0.0,0.0,0.0,0.0,0.0,0.0,0.0,0.0,0.0,0.0,0,0,0,0.0,0.0,false,0.0
16200,0.0,0.0,0.0,0.0,0.0,0.0,0.0,0.0,0.0,0.0,0.0,0.0,0,0,0,0.0,0.0,false,0.0
16200,0.0,0.0,0.0,0.0,0.0,0.0,0.0,0.0,0.0,0.0,0.0,0.0,0,0,0,0.0,0.0,false,0.0
16200,0.0,0.0,0.0,0.0,0.0,0.0,0.0,0.0,0.0,0.0,0.0,0.0,0,0,0,0.0,0.0,false,0.0
16200,0.0,0.0,0.0,0.0,0.0,0.0,0.0,0.0,0.0,0.0,0.0,0.0,0,0,0,0.0,0.0,false,0.0
16200,0.0,0.0,0.0,0.0,0.0,0.0,0.0,0.0,0.0,0.0,0.0,0.0,0,0,0,0.0,0.0,false,0.0
16200,0.0,0.0,0.0,0.0,0.0,0.0,0.0,0.0,0.0,0.0,0.0,0.0,0,0,0,0.0,0.0,false,0.0
16200,0.0,0.0,0.0,0.0,0.0,0.0,0.0,0.0,0.0,0.0,0.0,0.0,0,0,0,0.0,0.0,false,0.0
16200,0.0,0.0,0.0,0.0,0.0,0.0,0.0,0.0,0.0,0.0,0.0,0.0,0,0,0,0.0,0.0,false,0.0
16201,0.0,0.0,0.0,0.0,0.0,0.0,0.0,0.0,0.0,0.0,0.0,0.0,0,0,0,0.0,0.0,false,0.0
16201,0.0,0.0,0.0,0.0,0.0,0.0,0.0,0.0,0.0,0.0,0.0,0.0,0,0,0,0.0,0.0,false,0.0
16201,0.0,0.0,0.0,0.0,0.0,0.0,0.0,0.0,0.0,0.0,0.0,0.0,0,0,0,0.0,0.0,false,0.0
16201,0.0,0.0,0.0,0.0,0.0,0.0,0.0,0.0,0.0,0.0,0.0,0.0,0,0,0,0.0,0.0,false,0.0
16201,0.0,0.0,0.0,0.0,0.0,0.0,0.0,0.0,0.0,0.0,0.0,0.0,0,0,0,0.0,0.0,false,0.0
16201,0.0,0.0,0.0,0.0,0.0,0.0,0.0,0.0,0.0,0.0,0.0,0.0,0,0,0,0.0,0.0,false,0.0
16201,0.0,0.0,0.0,0.0,0.0,0.0,0.0,0.0,0.0,0.0,0.0,0.0,0,0,0,0.0,0.0,false,0.0
16201,0.0,0.0,0.0,0.0,0.0,0.0,0.0,0.0,0.0,0.0,0.0,0.0,0,0,0,0.0,0.0,false,0.0
16201,0.0,0.0,0.0,0.0,0.0,0.0,0.0,0.0,0.0,0.0,0.0,0.0,0,0,0,0.0,0.0,false,0.0
16201,0.0,0.0,0.0,0.0,0.0,0.0,0.0,0.0,0.0,0.0,0.0,0.0,0,0,0,0.0,0.0,false,0.0
16201,0.0,0.0,0.0,0.0,0.0,0.0,0.0,0.0,0.0,0.0,0.0,0.0,0,0,0,0.0,0.0,false,0.0
16201,0.0,0.0,0.0,0.0,0.0,0.0,0.0,0.0,0.0,0.0,0.0,0.0,0,0,0,0.0,0.0,false,0.0
16201,0.0,0.0,0.0,0.0,0.0,0.0,0.0,0.0,0.0,0.0,0.0,0.0,0,0,0,0.0,0.0,false,0.0
16201,0.0,0.0,0.0,0.0,0.0,0.0,0.0,0.0,0.0,0.0,0.0,0.0,0,0,0,0.0,0.0,false,0.0
16201,0.0,0.0,0.0,0.0,0.0,0.0,0.0,0.0,0.0,0.0,0.0,0.0,0,0,0,0.0,0.0,false,0.0
16201,0.0,0.0,0.0,0.0,0.0,0.0,0.0,0.0,0.0,0.0,0.0,0.0,0,0,0,0.0,0.0,false,0.0
16201,0.0,0.0,0.0,0.0,0.0,0.0,0.0,0.0,0.0,0.0,0.0,0.0,0,0,0,0.0,0.0,false,0.0
16201,0.0,0.0,0.0,0.0,0.0,0.0,0.0,0.0,0.0,0.0,0.0,0.0,0,0,0,0.0,0.0,false,0.0
16201,0.0,0.0,0.0,0.0,0.0,0.0,0.0,0.0,0.0,0.0,0.0,0.0,0,0,0,0.0,0.0,false,0.0
16201,0.0,0.0,0.0,0.0,0.0,0.0,0.0,0.0,0.0,0.0,0.0,0.0,0,0,0,0.0,0.0,false,0.0
16201,0.0,0.0,0.0,0.0,0.0,0.0,0.0,0.0,0.0,0.0,0.0,0.0,0,0,0,0.0,0.0,false,0.0
16201,0.0,0.0,0.0,0.0,0.0,0.0,0.0,0.0,0.0,0.0,0.0,0.0,0,0,0,0.0,0.0,false,0.0
16201,-0.01171875,-0.014160156,-1.0361328,-0.007449576,-0.004256901,-0.0021284504,185.40001,20.400002,-18.6,43.435295,225.51225,0.0,1,0,0,3.1347373,3.0,false,0.0
16255,-0.01171875,-0.014160156,-1.0361328,-0.007449576,-0.004256901,-0.0021284504,185.40001,20.400002,-18.6,43.435295,225.51225,0.0,1,0,0,3.1347373,3.0,false,0.0
16255,-0.01171875,-0.014160156,-1.0361328,-0.007449576,-0.004256901,-0.0021284504,185.40001,20.400002,-18.6,43.435295,225.51225,0.0,1,0,0,3.1347373,3.0,false,0.0
16255,-0.01171875,-0.014160156,-1.0361328,-0.007449576,-0.004256901,-0.0021284504,185.40001,20.400002,-18.6,43.435295,225.51225,0.0,1,0,0,3.1347373,3.0,false,0.0
16255,-0.01171875,-0.014160156,-1.0361328,-0.007449576,-0.004256901,-0.0021284504,185.40001,20.400002,-18.6,43.435295,225.51225,0.0,1,0,0,3.1347373,3.0,false,0.0
16255,-0.01171875,-0.014160156,-1.0361328,-0.007449576,-0.004256901,-0.0021284504,185.40001,20.400002,-18.6,43.435295,225.51225,0.0,1,0,0,3.1347373,3.0,false,0.0
16256,-0.01171875,-0.014160156,-1.0361328,-0.007449576,-0.004256901,-0.0021284504,185.40001,20.400002,-18.6,43.435295,225.51225,0.0,1,0,0,3.1347373,3.0,false,0.0
16256,-0.01171875,-0.014160156,-1.0361328,-0.007449576,-0.004256901,-0.0021284504,185.40001,20.400002,-18.6,43.435295,225.51225,0.0,1,0,0,3.1347373,3.0,false,0.0
16256,-0.01171875,-0.014160156,-1.0361328,-0.007449576,-0.004256901,-0.0021284504,185.40001,20.400002,-18.6,43.435295,225.51225,0.0,1,0,0,3.1347373,3.0,false,0.0
16256,-0.01171875,-0.014160156,-1.0361328,-0.007449576,-0.004256901,-0.0021284504,185.40001,20.400002,-18.6,43.435295,225.51225,0.0,1,0,0,3.1347373,3.0,false,0.0
16256,-0.01171875,-0.014160156,-1.0361328,-0.007449576,-0.004256901,-0.0021284504,185.40001,20.400002,-18.6,43.435295,225.51225,0.0,1,0,0,3.1347373,3.0,false,0.0
16256,-0.01171875,-0.014160156,-1.0361328,-0.007449576,-0.004256901,-0.0021284504,185.40001,20.400002,-18.6,43.435295,225.51225,0.0,1,0,0,3.1347373,3.0,false,0.0
16256,-0.01171875,-0.014160156,-1.0361328,-0.007449576,-0.004256901,-0.0021284504,185.40001,20.400002,-18.6,43.435295,225.51225,0.0,1,0,0,3.1347373,3.0,false,0.0
16257,-0.01171875,-0.014160156,-1.0361328,-0.007449576,-0.004256901,-0.0021284504,185.40001,20.400002,-18.6,43.435295,225.51225,0.0,1,0,0,3.1347373,3.0,false,0.0
16257,-0.01171875,-0.014160156,-1.0361328,-0.007449576,-0.004256901,-0.0021284504,185.40001,20.400002,-18.6,43.435295,225.51225,0.0,1,0,0,3.1347373,3.0,false,0.0
16257,-0.01171875,-0.014160156,-1.0361328,-0.007449576,-0.004256901,-0.0021284504,185.40001,20.400002,-18.6,43.435295,225.51225,0.0,1,0,0,3.1347373,3.0,false,0.0
16257,-0.01171875,-0.014160156,-1.0361328,-0.007449576,-0.004256901,-0.0021284504,185.40001,20.400002,-18.6,43.435295,225.51225,0.0,1,0,0,3.1347373,3.0,false,0.0
16257,-0.01171875,-0.014160156,-1.0361328,-0.007449576,-0.004256901,-0.0021284504,185.40001,20.400002,-18.6,43.435295,225.51225,0.0,1,0,0,3.1347373,3.0,false,0.0
16257,-0.01171875,-0.014160156,-1.0361328,-0.007449576,-0.004256901,-0.0021284504,185.40001,20.400002,-18.6,43.435295,225.51225,0.0,1,0,0,3.1347373,3.0,false,0.0
16257,-0.01171875,-0.014160156,-1.0361328,-0.007449576,-0.004256901,-0.0021284504,185.40001,20.400002,-18.6,43.435295,225.51225,0.0,1,0,0,3.1347373,3.0,false,0.0
16257,-0.01171875,-0.014160156,-1.0361328,-0.007449576,-0.004256901,-0.0021284504,185.40001,20.400002,-18.6,43.435295,225.51225,0.0,1,0,0,3.1347373,3.0,false,0.0
16257,-0.01171875,-0.014160156,-1.0361328,-0.007449576,-0.004256901,-0.0021284504,185.40001,20.400002,-18.6,43.435295,225.51225,0.0,1,0,0,3.1347373,3.0,false,0.0
16257,-0.01171875,-0.014160156,-1.0361328,-0.007449576,-0.004256901,-0.0021284504,185.40001,20.400002,-18.6,43.435295,225.51225,0.0,1,0,0,3.1347373,3.0,false,0.0
16257,-0.01171875,-0.014160156,-1.0361328,-0.007449576,-0.004256901,-0.0021284504,185.40001,20.400002,-18.6,43.435295,225.51225,0.0,1,0,0,3.1347373,3.0,false,0.0
16257,-0.01171875,-0.014160156,-1.0361328,-0.007449576,-0.004256901,-0.0021284504,185.40001,20.400002,-18.6,43.435295,225.51225,0.0,1,0,0,3.1347373,3.0,false,0.0
16257,-0.01171875,-0.014160156,-1.0361328,-0.007449576,-0.004256901,-0.0021284504,185.40001,20.400002,-18.6,43.435295,225.51225,0.0,1,0,0,3.1347373,3.0,false,0.0
16257,-0.01171875,-0.014160156,-1.0361328,-0.007449576,-0.004256901,-0.0021284504,185.40001,20.400002,-18.6,43.435295,225.51225,0.0,1,0,0,3.1347373,3.0,false,0.0
16257,-0.01171875,-0.014160156,-1.0361328,-0.007449576,-0.004256901,-0.0021284504,185.40001,20.400002,-18.6,43.435295,225.51225,0.0,1,0,0,3.1347373,3.0,false,0.0
16257,-0.01171875,-0.014160156,-1.0361328,-0.007449576,-0.004256901,-0.0021284504,185.40001,20.400002,-18.6,43.435295,225.51225,0.0,1,0,0,3.1347373,3.0,false,0.0
16257,-0.01171875,-0.014160156,-1.0361328,-0.007449576,-0.004256901,-0.0021284504,185.40001,20.400002,-18.6,43.435295,225.51225,0.0,1,0,0,3.1347373,3.0,false,0.0
16257,-0.01171875,-0.014160156,-1.0361328,-0.007449576,-0.004256901,-0.0021284504,185.40001,20.400002,-18.6,43.435295,225.51225,0.0,1,0,0,3.1347373,3.0,false,0.0
16259,-0.01171875,-0.014160156,-1.0361328,-0.007449576,-0.004256901,-0.0021284504,185.40001,20.400002,-18.6,43.435295,225.51225,0.0,1,0,0,3.1347373,3.0,false,0.0
16259,-0.01171875,-0.014160156,-1.0361328,-0.007449576,-0.004256901,-0.0021284504,185.40001,20.400002,-18.6,43.435295,225.51225,0.0,1,0,0,3.1347373,3.0,false,0.0
16259,-0.01171875,-0.014160156,-1.0361328,-0.007449576,-0.004256901,-0.0021284504,185.40001,20.400002,-18.6,43.435295,225.51225,0.0,1,0,0,3.1347373,3.0,false,0.0
16259,-0.01171875,-0.014160156,-1.0361328,-0.007449576,-0.004256901,-0.0021284504,185.40001,20.400002,-18.6,43.435295,225.51225,0.0,1,0,0,3.1347373,3.0,false,0.0
16259,-0.01171875,-0.014160156,-1.0361328,-0.007449576,-0.004256901,-0.0021284504,185.40001,20.400002,-18.6,43.435295,225.51225,0.0,1,0,0,3.1347373,3.0,false,0.0
16259,-0.01171875,-0.014160156,-1.0361328,-0.007449576,-0.004256901,-0.0021284504,185.40001,20.400002,-18.6,43.435295,225.51225,0.0,1,0,0,3.1347373,3.0,false,0.0
16259,-0.01171875,-0.014160156,-1.0361328,-0.007449576,-0.004256901,-0.0021284504,185.40001,20.400002,-18.6,43.435295,225.51225,0.0,1,0,0,3.1347373,3.0,false,0.0
16259,-0.01171875,-0.014160156,-1.0361328,-0.007449576,-0.004256901,-0.0021284504,185.40001,20.400002,-18.6,43.435295,225.51225,0.0,1,0,0,3.1347373,3.0,false,0.0
16259,-0.01171875,-0.014160156,-1.0361328,-0.007449576,-0.004256901,-0.0021284504,185.40001,20.400002,-18.6,43.435295,225.51225,0.0,1,0,0,3.1347373,3.0,false,0.0
16259,-0.01171875,-0.014160156,-1.0361328,-0.007449576,-0.004256901,-0.0021284504,185.40001,20.400002,-18.6,43.435295,225.51225,0.0,1,0,0,3.1347373,3.0,false,0.0
16259,-0.01171875,-0.014160156,-1.0361328,-0.007449576,-0.004256901,-0.0021284504,185.40001,20.400002,-18.6,43.435295,225.51225,0.0,1,0,0,3.1347373,3.0,false,0.0
16259,-0.01171875,-0.014160156,-1.0361328,-0.007449576,-0.004256901,-0.0021284504,185.40001,20.400002,-18.6,43.435295,225.51225,0.0,1,0,0,3.1347373,3.0,false,0.0
16259,-0.0087890625,-0.020019531,-1.0366211,-0.0010642252,-0.005321126,-0.0010642252,185.1,20.7,-14.1,43.405884,225.51225,0.0,1,0,0,3.1464102,3.0175478,false,0.0
16307,-0.0087890625,-0.020019531,-1.0366211,-0.0010642252,-0.005321126,-0.0010642252,185.1,20.7,-14.1,43.405884,225.51225,0.0,1,0,0,3.1464102,3.0175478,false,0.0
16307,-0.0087890625,-0.020019531,-1.0366211,-0.0010642252,-0.005321126,-0.0010642252,185.1,20.7,-14.1,43.405884,225.51225,0.0,1,0,0,3.1464102,3.0175478,false,0.0
16307,-0.0087890625,-0.020019531,-1.0366211,-0.0010642252,-0.005321126,-0.0010642252,185.1,20.7,-14.1,43.405884,225.51225,0.0,1,0,0,3.1464102,3.0175478,false,0.0
16307,-0.0087890625,-0.020019531,-1.0366211,-0.0010642252,-0.005321126,-0.0010642252,185.1,20.7,-14.1,43.405884,225.51225,0.0,1,0,0,3.1464102,3.0175478,false,0.0
16307,-0.0087890625,-0.020019531,-1.0366211,-0.0010642252,-0.005321126,-0.0010642252,185.1,20.7,-14.1,43.405884,225.51225,0.0,1,0,0,3.1464102,3.0175478,false,0.0
16307,-0.0087890625,-0.020019531,-1.0366211,-0.0010642252,-0.005321126,-0.0010642252,185.1,20.7,-14.1,43.405884,225.51225,0.0,1,0,0,3.1464102,3.0175478,false,0.0
16307,-0.0087890625,-0.020019531,-1.0366211,-0.0010642252,-0.005321126,-0.0010642252,185.1,20.7,-14.1,43.405884,225.51225,0.0,1,0,0,3.1464102,3.0175478,false,0.0
16307,-0.0087890625,-0.020019531,-1.0366211,-0.0010642252,-0.005321126,-0.0010642252,185.1,20.7,-14.1,43.405884,225.51225,0.0,1,0,0,3.1464102,3.0175478,false,0.0
16307,-0.0087890625,-0.020019531,-1.0366211,-0.0010642252,-0.005321126,-0.0010642252,185.1,20.7,-14.1,43.405884,225.51225,0.0,1,0,0,3.1464102,3.0175478,false,0.0
16307,-0.0087890625,-0.020019531,-1.0366211,-0.0010642252,-0.005321126,-0.0010642252,185.1,20.7,-14.1,43.405884,225.51225,0.0,1,0,0,3.1464102,3.0175478,false,0.0
16307,-0.0087890625,-0.020019531,-1.0366211,-0.0010642252,-0.005321126,-0.0010642252,185.1,20.7,-14.1,43.405884,225.51225,0.0,1,0,0,3.1464102,3.0175478,false,0.0
16309,-0.0087890625,-0.020019531,-1.0366211,-0.0010642252,-0.005321126,-0.0010642252,185.1,20.7,-14.1,43.405884,225.51225,0.0,1,0,0,3.1464102,3.0175478,false,0.0
16309,-0.0087890625,-0.020019531,-1.0366211,-0.0010642252,-0.005321126,-0.0010642252,185.1,20.7,-14.1,43.405884,225.51225,0.0,1,0,0,3.1464102,3.0175478,false,0.0
16309,-0.0087890625,-0.020019531,-1.0366211,-0.0010642252,-0.005321126,-0.0010642252,185.1,20.7,-14.1,43.405884,225.51225,0.0,1,0,0,3.1464102,3.0175478,false,0.0
16309,-0.0087890625,-0.020019531,-1.0366211,-0.0010642252,-0.005321126,-0.0010642252,185.1,20.7,-14.1,43.405884,225.51225,0.0,1,0,0,3.1464102,3.0175478,false,0.0
16309,-0.0087890625,-0.020019531,-1.0366211,-0.0010642252,-0.005321126,-0.0010642252,185.1,20.7,-14.1,43.405884,225.51225,0.0,1,0,0,3.1464102,3.0175478,false,0.0
16309,-0.0087890625,-0.020019531,-1.0366211,-0.0010642252,-0.005321126,-0.0010642252,185.1,20.7,-14.1,43.405884,225.51225,0.0,1,0,0,3.1464102,3.0175478,false,0.0
16309,-0.0087890625,-0.020019531,-1.0366211,-0.0010642252,-0.005321126,-0.0010642252,185.1,20.7,-14.1,43.405884,225.51225,0.0,1,0,0,3.1464102,3.0175478,false,0.0
16309,-0.0087890625,-0.020019531,-1.0366211,-0.0010642252,-0.005321126,-0.0010642252,185.1,20.7,-14.1,43.405884,225.51225,0.0,1,0,0,3.1464102,3.0175478,false,0.0
16309,-0.0087890625,-0.020019531,-1.0366211,-0.0010642252,-0.005321126,-0.0010642252,185.1,20.7,-14.1,43.405884,225.51225,0.0,1,0,0,3.1464102,3.0175478,false,0.0
16309,-0.0087890625,-0.020019531,-1.0366211,-0.0010642252,-0.005321126,-0.0010642252,185.1,20.7,-14.1,43.405884,225.51225,0.0,1,0,0,3.1464102,3.0175478,false,0.0
16309,-0.0087890625,-0.020019531,-1.0366211,-0.0010642252,-0.005321126,-0.0010642252,185.1,20.7,-14.1,43.405884,225.51225,0.0,1,0,0,3.1464102,3.0175478,false,0.0
16309,-0.0087890625,-0.020019531,-1.0366211,-0.0010642252,-0.005321126,-0.0010642252,185.1,20.7,-14.1,43.405884,225.51225,0.0,1,0,0,3.1464102,3.0175478,false,0.0
16309,-0.0087890625,-0.020019531,-1.0366211,-0.0010642252,-0.005321126,-0.0010642252,185.1,20.7,-14.1,43.405884,225.51225,0.0,1,0,0,3.1464102,3.0175478,false,0.0
16309,-0.0087890625,-0.020019531,-1.0366211,-0.0010642252,-0.005321126,-0.0010642252,185.1,20.7,-14.1,43.405884,225.51225,0.0,1,0,0,3.1464102,3.0175478,false,0.0
16309,-0.0087890625,-0.020019531,-1.0366211,-0.0010642252,-0.005321126,-0.0010642252,185.1,20.7,-14.1,43.405884,225.51225,0.0,1,0,0,3.1464102,3.0175478,false,0.0
16309,-0.0087890625,-0.020019531,-1.0366211,-0.0010642252,-0.005321126,-0.0010642252,185.1,20.7,-14.1,43.405884,225.51225,0.0,1,0,0,3.1464102,3.0175478,false,0.0
16310,-0.0087890625,-0.020019531,-1.0366211,-0.0010642252,-0.005321126,-0.0010642252,185.1,20.7,-14.1,43.405884,225.51225,0.0,1,0,0,3.1464102,3.0175478,false,0.0
16310,-0.0087890625,-0.020019531,-1.0366211,-0.0010642252,-0.005321126,-0.0010642252,185.1,20.7,-14.1,43.405884,225.51225,0.0,1,0,0,3.1464102,3.0175478,false,0.0
16310,-0.0087890625,-0.020019531,-1.0366211,-0.0010642252,-0.005321126,-0.0010642252,185.1,20.7,-14.1,43.405884,225.51225,0.0,1,0,0,3.1464102,3.0175478,false,0.0
16310,-0.0087890625,-0.020019531,-1.0366211,-0.0010642252,-0.005321126,-0.0010642252,185.1,20.7,-14.1,43.405884,225.51225,0.0,1,0,0,3.1464102,3.0175478,false,0.0
16310,-0.0087890625,-0.020019531,-1.0366211,-0.0010642252,-0.005321126,-0.0010642252,185.1,20.7,-14.1,43.405884,225.51225,0.0,1,0,0,3.1464102,3.0175478,false,0.0
16310,-0.0087890625,-0.020019531,-1.0366211,-0.0010642252,-0.005321126,-0.0010642252,185.1,20.7,-14.1,43.405884,225.51225,0.0,1,0,0,3.1464102,3.0175478,false,0.0
16310,-0.0087890625,-0.020019531,-1.0366211,-0.0010642252,-0.005321126,-0.0010642252,185.1,20.7,-14.1,43.405884,225.51225,0.0,1,0,0,3.1464102,3.0175478,false,0.0
16310,-0.0087890625,-0.020019531,-1.0366211,-0.0010642252,-0.005321126,-0.0010642252,185.1,20.7,-14.1,43.405884,225.51225,0.0,1,0,0,3.1464102,3.0175478,false,0.0
16310,-0.0087890625,-0.020019531,-1.0366211,-0.0010642252,-0.005321126,-0.0010642252,185.1,20.7,-14.1,43.405884,225.51225,0.0,1,0,0,3.1464102,3.0175478,false,0.0
16310,-0.0087890625,-0.020019531,-1.0366211,-0.0010642252,-0.005321126,-0.0010642252,185.1,20.7,-14.1,43.405884,225.51225,0.0,1,0,0,3.1464102,3.0175478,false,0.0
16310,-0.0087890625,-0.020019531,-1.0366211,-0.0010642252,-0.005321126,-0.0010642252,185.1,20.7,-14.1,43.405884,225.51225,0.0,1,0,0,3.1464102,3.0175478,false,0.0
16310,-0.0087890625,-0.020019531,-1.0366211,-0.0010642252,-0.005321126,-0.0010642252,185.1,20.7,-14.1,43.405884,225.51225,0.0,1,0,0,3.1464102,3.0175478,false,0.0
16310,-0.0087890625,-0.020019531,-1.0366211,-0.0010642252,-0.005321126,-0.0010642252,185.1,20.7,-14.1,43.405884,225.51225,0.0,1,0,0,3.1464102,3.0175478,false,0.0
16310,-0.0087890625,-0.020019531,-1.0366211,-0.0010642252,-0.005321126,-0.0010642252,185.1,20.7,-14.1,43.405884,225.51225,0.0,1,0,0,3.1464102,3.0175478,false,0.0
16310,-0.0087890625,-0.020019531,-1.0366211,-0.0010642252,-0.005321126,-0.0010642252,185.1,20.7,-14.1,43.405884,225.51225,0.0,1,0,0,3.1464102,3.0175478,false,0.0
16310,-0.0087890625,-0.020507812,-1.0283203,-0.005321126,-0.006385351,-0.0031926755,187.20001,21.6,-18.300001,43.441177,225.51225,0.0,1,0,0,3.152285,3.0116732,false,0.0
16334,-0.0087890625,-0.020507812,-1.0283203,-0.005321126,-0.006385351,-0.0031926755,187.20001,21.6,-18.300001,43.441177,225.51225,0.0,1,0,0,3.152285,3.0116732,false,0.0
16351,-0.0087890625,-0.020507812,-1.0283203,-0.005321126,-0.006385351,-0.0031926755,187.20001,21.6,-18.300001,43.441177,225.51225,0.0,1,0,0,3.152285,3.0116732,false,0.0
16351,-0.0087890625,-0.020507812,-1.0283203,-0.005321126,-0.006385351,-0.0031926755,187.20001,21.6,-18.300001,43.441177,225.51225,0.0,1,0,0,3.152285,3.0116732,false,0.0
16351,-0.0087890625,-0.020507812,-1.0283203,-0.005321126,-0.006385351,-0.0031926755,187.20001,21.6,-18.300001,43.441177,225.51225,0.0,1,0,0,3.152285,3.0116732,false,0.0
16351,-0.0087890625,-0.020507812,-1.0283203,-0.005321126,-0.006385351,-0.0031926755,187.20001,21.6,-18.300001,43.441177,225.51225,0.0,1,0,0,3.152285,3.0116732,false,0.0
16351,-0.0087890625,-0.020507812,-1.0283203,-0.005321126,-0.006385351,-0.0031926755,187.20001,21.6,-18.300001,43.441177,225.51225,0.0,1,0,0,3.152285,3.0116732,false,0.0
16351,-0.0087890625,-0.020507812,-1.0283203,-0.005321126,-0.006385351,-0.0031926755,187.20001,21.6,-18.300001,43.441177,225.51225,0.0,1,0,0,3.152285,3.0116732,false,0.0
16351,-0.0087890625,-0.020507812,-1.0283203,-0.005321126,-0.006385351,-0.0031926755,187.20001,21.6,-18.300001,43.441177,225.51225,0.0,1,0,0,3.152285,3.0116732,false,0.0
16351,-0.0087890625,-0.020507812,-1.0283203,-0.005321126,-0.006385351,-0.0031926755,187.20001,21.6,-18.300001,43.441177,225.51225,0.0,1,0,0,3.152285,3.0116732,false,0.0
16351,-0.0087890625,-0.020507812,-1.0283203,-0.005321126,-0.006385351,-0.0031926755,187.20001,21.6,-18.300001,43.441177,225.51225,0.0,1,0,0,3.152285,3.0116732,false,0.0
16351,-0.0087890625,-0.020507812,-1.0283203,-0.005321126,-0.006385351,-0.0031926755,187.20001,21.6,-18.300001,43.441177,225.51225,0.0,1,0,0,3.152285,3.0116732,false,0.0
16351,-0.0087890625,-0.020507812,-1.0283203,-0.005321126,-0.006385351,-0.0031926755,187.20001,21.6,-18.300001,43.441177,225.51225,0.0,1,0,0,3.152285,3.0116732,false,0.0
16351,-0.0087890625,-0.020507812,-1.0283203,-0.005321126,-0.006385351,-0.0031926755,187.20001,21.6,-18.300001,43.441177,225.51225,0.0,1,0,0,3.152285,3.0116732,false,0.0
16352,-0.0087890625,-0.020507812,-1.0283203,-0.005321126,-0.006385351,-0.0031926755,187.20001,21.6,-18.300001,43.441177,225.51225,0.0,1,0,0,3.152285,3.0116732,false,0.0
16352,-0.0087890625,-0.020507812,-1.0283203,-0.005321126,-0.006385351,-0.0031926755,187.20001,21.6,-18.300001,43.441177,225.51225,0.0,1,0,0,3.152285,3.0116732,false,0.0
16352,-0.0087890625,-0.020507812,-1.0283203,-0.005321126,-0.006385351,-0.0031926755,187.20001,21.6,-18.300001,43.441177,225.51225,0.0,1,0,0,3.152285,3.0116732,false,0.0
16352,-0.0087890625,-0.020507812,-1.0283203,-0.005321126,-0.006385351,-0.0031926755,187.20001,21.6,-18.300001,43.441177,225.51225,0.0,1,0,0,3.152285,3.0116732,false,0.0
16352,-0.0087890625,-0.020507812,-1.0283203,-0.005321126,-0.006385351,-0.0031926755,187.20001,21.6,-18.300001,43.441177,225.51225,0.0,1,0,0,3.152285,3.0116732,false,0.0
16352,-0.0087890625,-0.020507812,-1.0283203,-0.005321126,-0.006385351,-0.0031926755,187.20001,21.6,-18.300001,43.441177,225.51225,0.0,1,0,0,3.152285,3.0116732,false,0.0
16352,-0.0087890625,-0.020507812,-1.0283203,-0.005321126,-0.006385351,-0.0031926755,187.20001,21.6,-18.300001,43.441177,225.51225,0.0,1,0,0,3.152285,3.0116732,false,0.0
16352,-0.0087890625,-0.020507812,-1.0283203,-0.005321126,-0.006385351,-0.0031926755,187.20001,21.6,-18.300001,43.441177,225.51225,0.0,1,0,0,3.152285,3.0116732,false,0.0
16352,-0.0087890625,-0.020507812,-1.0283203,-0.005321126,-0.006385351,-0.0031926755,187.20001,21.6,-18.300001,43.441177,225.51225,0.0,1,0,0,3.152285,3.0116732,false,0.0
16352,-0.0087890625,-0.020507812,-1.0283203,-0.005321126,-0.006385351,-0.0031926755,187.20001,21.6,-18.300001,43.441177,225.51225,0.0,1,0,0,3.152285,3.0116732,false,0.0
16352,-0.0087890625,-0.020507812,-1.0283203,-0.005321126,-0.006385351,-0.0031926755,187.20001,21.6,-18.300001,43.441177,225.51225,0.0,1,0,0,3.152285,3.0116732,false,0.0
16352,-0.0087890625,-0.020507812,-1.0283203,-0.005321126,-0.006385351,-0.0031926755,187.20001,21.6,-18.300001,43.441177,225.51225,0.0,1,0,0,3.152285,3.0116732,false,0.0
16352,-0.0087890625,-0.020507812,-1.0283203,-0.005321126,-0.006385351,-0.0031926755,187.20001,21.6,-18.300001,43.441177,225.51225,0.0,1,0,0,3.152285,3.0116732,false,0.0
16352,-0.0087890625,-0.020507812,-1.0283203,-0.005321126,-0.006385351,-0.0031926755,187.20001,21.6,-18.300001,43.441177,225.51225,0.0,1,0,0,3.152285,3.0116732,false,0.0
16352,-0.0087890625,-0.020507812,-1.0283203,-0.005321126,-0.006385351,-0.0031926755,187.20001,21.6,-18.300001,43.441177,225.51225,0.0,1,0,0,3.152285,3.0116732,false,0.0
16352,-0.0087890625,-0.020507812,-1.0283203,-0.005321126,-0.006385351,-0.0031926755,187.20001,21.6,-18.300001,43.441177,225.51225,0.0,1,0,0,3.152285,3.0116732,false,0.0
16352,-0.0087890625,-0.020507812,-1.0283203,-0.005321126,-0.006385351,-0.0031926755,187.20001,21.6,-18.300001,43.441177,225.51225,0.0,1,0,0,3.152285,3.0116732,false,0.0
16352,-0.0087890625,-0.020507812,-1.0283203,-0.005321126,-0.006385351,-0.0031926755,187.20001,21.6,-18.300001,43.441177,225.51225,0.0,1,0,0,3.152285,3.0116732,false,0.0
16352,-0.0087890625,-0.020507812,-1.0283203,-0.005321126,-0.006385351,-0.0031926755,187.20001,21.6,-18.300001,43.441177,225.51225,0.0,1,0,0,3.152285,3.0116732,false,0.0
16352,-0.0087890625,-0.020507812,-1.0283203,-0.005321126,-0.006385351,-0.0031926755,187.20001,21.6,-18.300001,43.441177,225.51225,0.0,1,0,0,3.152285,3.0116732,false,0.0
16352,-0.0087890625,-0.020507812,-1.0283203,-0.005321126,-0.006385351,-0.0031926755,187.20001,21.6,-18.300001,43.441177,225.51225,0.0,1,0,0,3.152285,3.0116732,false,0.0
16352,-0.0087890625,-0.020507812,-1.0283203,-0.005321126,-0.006385351,-0.0031926755,187.20001,21.6,-18.300001,43.441177,225.51225,0.0,1,0,0,3.152285,3.0116732,false,0.0
16353,-0.0087890625,-0.020507812,-1.0283203,-0.005321126,-0.006385351,-0.0031926755,187.20001,21.6,-18.300001,43.441177,225.51225,0.0,1,0,0,3.152285,3.0116732,false,0.0
16353,-0.0087890625,-0.020507812,-1.0283203,-0.005321126,-0.006385351,-0.0031926755,187.20001,21.6,-18.300001,43.441177,225.51225,0.0,1,0,0,3.152285,3.0116732,false,0.0
16353,-0.0087890625,-0.020507812,-1.0283203,-0.005321126,-0.006385351,-0.0031926755,187.20001,21.6,-18.300001,43.441177,225.51225,0.0,1,0,0,3.152285,3.0116732,false,0.0
16353,-0.0087890625,-0.020507812,-1.0283203,-0.005321126,-0.006385351,-0.0031926755,187.20001,21.6,-18.300001,43.441177,225.51225,0.0,1,0,0,3.152285,3.0116732,false,0.0
16353,-0.0087890625,-0.020507812,-1.0283203,-0.005321126,-0.006385351,-0.0031926755,187.20001,21.6,-18.300001,43.441177,225.51225,0.0,1,0,0,3.152285,3.0116732,false,0.0
16353,-0.0087890625,-0.020507812,-1.0283203,-0.005321126,-0.006385351,-0.0031926755,187.20001,21.6,-18.300001,43.441177,225.51225,0.0,1,0,0,3.152285,3.0116732,false,0.0
16353,-0.0087890625,-0.020507812,-1.0283203,-0.005321126,-0.006385351,-0.0031926755,187.20001,21.6,-18.300001,43.441177,225.51225,0.0,1,0,0,3.152285,3.0116732,false,0.0
16353,-0.009277344,-0.01953125,-1.0380859,-0.004256901,-0.005321126,-0.005321126,182.70001,20.400002,-15.6,43.455883,225.51225,0.0,1,0,0,3.1581597,3.0116732,false,0.0
16401,-0.009277344,-0.01953125,-1.0380859,-0.004256901,-0.005321126,-0.005321126,182.70001,20.400002,-15.6,43.455883,225.51225,0.0,1,0,0,3.1581597,3.0116732,false,0.0
16401,-0.009277344,-0.01953125,-1.0380859,-0.004256901,-0.005321126,-0.005321126,182.70001,20.400002,-15.6,43.455883,225.51225,0.0,1,0,0,3.1581597,3.0116732,false,0.0
16401,-0.009277344,-0.01953125,-1.0380859,-0.004256901,-0.005321126,-0.005321126,182.70001,20.400002,-15.6,43.455883,225.51225,0.0,1,0,0,3.1581597,3.0116732,false,0.0
16401,-0.009277344,-0.01953125,-1.0380859,-0.004256901,-0.005321126,-0.005321126,182.70001,20.400002,-15.6,43.455883,225.51225,0.0,1,0,0,3.1581597,3.0116732,false,0.0
16401,-0.009277344,-0.01953125,-1.0380859,-0.004256901,-0.005321126,-0.005321126,182.70001,20.400002,-15.6,43.455883,225.51225,0.0,1,0,0,3.1581597,3.0116732,false,0.0
16401,-0.009277344,-0.01953125,-1.0380859,-0.004256901,-0.005321126,-0.005321126,182.70001,20.400002,-15.6,43.455883,225.51225,0.0,1,0,0,3.1581597,3.0116732,false,0.0
16401,-0.009277344,-0.01953125,-1.0380859,-0.004256901,-0.005321126,-0.005321126,182.70001,20.400002,-15.6,43.455883,225.51225,0.0,1,0,0,3.1581597,3.0116732,false,0.0
16401,-0.009277344,-0.01953125,-1.0380859,-0.004256901,-0.005321126,-0.005321126,182.70001,20.400002,-15.6,43.455883,225.51225,0.0,1,0,0,3.1581597,3.0116732,false,0.0
16401,-0.009277344,-0.01953125,-1.0380859,-0.004256901,-0.005321126,-0.005321126,182.70001,20.400002,-15.6,43.455883,225.51225,0.0,1,0,0,3.1581597,3.0116732,false,0.0
16401,-0.009277344,-0.01953125,-1.0380859,-0.004256901,-0.005321126,-0.005321126,182.70001,20.400002,-15.6,43.455883,225.51225,0.0,1,0,0,3.1581597,3.0116732,false,0.0
16401,-0.009277344,-0.01953125,-1.0380859,-0.004256901,-0.005321126,-0.005321126,182.70001,20.400002,-15.6,43.455883,225.51225,0.0,1,0,0,3.1581597,3.0116732,false,0.0
16401,-0.009277344,-0.01953125,-1.0380859,-0.004256901,-0.005321126,-0.005321126,182.70001,20.400002,-15.6,43.455883,225.51225,0.0,1,0,0,3.1581597,3.0116732,false,0.0
16401,-0.009277344,-0.01953125,-1.0380859,-0.004256901,-0.005321126,-0.005321126,182.70001,20.400002,-15.6,43.455883,225.51225,0.0,1,0,0,3.1581597,3.0116732,false,0.0
16401,-0.009277344,-0.01953125,-1.0380859,-0.004256901,-0.005321126,-0.005321126,182.70001,20.400002,-15.6,43.455883,225.51225,0.0,1,0,0,3.1581597,3.0116732,false,0.0
16402,-0.009277344,-0.01953125,-1.0380859,-0.004256901,-0.005321126,-0.005321126,182.70001,20.400002,-15.6,43.455883,225.51225,0.0,1,0,0,3.1581597,3.0116732,false,0.0
16402,-0.009277344,-0.01953125,-1.0380859,-0.004256901,-0.005321126,-0.005321126,182.70001,20.400002,-15.6,43.455883,225.51225,0.0,1,0,0,3.1581597,3.0116732,false,0.0
16402,-0.009277344,-0.01953125,-1.0380859,-0.004256901,-0.005321126,-0.005321126,182.70001,20.400002,-15.6,43.455883,225.51225,0.0,1,0,0,3.1581597,3.0116732,false,0.0
16402,-0.009277344,-0.01953125,-1.0380859,-0.004256901,-0.005321126,-0.005321126,182.70001,20.400002,-15.6,43.455883,225.51225,0.0,1,0,0,3.1581597,3.0116732,false,0.0
16402,-0.009277344,-0.01953125,-1.0380859,-0.004256901,-0.005321126,-0.005321126,182.70001,20.400002,-15.6,43.455883,225.51225,0.0,1,0,0,3.1581597,3.0116732,false,0.0
16402,-0.009277344,-0.01953125,-1.0380859,-0.004256901,-0.005321126,-0.005321126,182.70001,20.400002,-15.6,43.455883,225.51225,0.0,1,0,0,3.1581597,3.0116732,false,0.0
16402,-0.009277344,-0.01953125,-1.0380859,-0.004256901,-0.005321126,-0.005321126,182.70001,20.400002,-15.6,43.455883,225.51225,0.0,1,0,0,3.1581597,3.0116732,false,0.0
16402,-0.009277344,-0.01953125,-1.0380859,-0.004256901,-0.005321126,-0.005321126,182.70001,20.400002,-15.6,43.455883,225.51225,0.0,1,0,0,3.1581597,3.0116732,false,0.0
16402,-0.009277344,-0.01953125,-1.0380859,-0.004256901,-0.005321126,-0.005321126,182.70001,20.400002,-15.6,43.455883,225.51225,0.0,1,0,0,3.1581597,3.0116732,false,0.0
16402,-0.009277344,-0.01953125,-1.0380859,-0.004256901,-0.005321126,-0.005321126,182.70001,20.400002,-15.6,43.455883,225.51225,0.0,1,0,0,3.1581597,3.0116732,false,0.0
16402,-0.009277344,-0.01953125,-1.0380859,-0.004256901,-0.005321126,-0.005321126,182.70001,20.400002,-15.6,43.455883,225.51225,0.0,1,0,0,3.1581597,3.0116732,false,0.0
16402,-0.009277344,-0.01953125,-1.0380859,-0.004256901,-0.005321126,-0.005321126,182.70001,20.400002,-15.6,43.455883,225.51225,0.0,1,0,0,3.1581597,3.0116732,false,0.0
16402,-0.009277344,-0.01953125,-1.0380859,-0.004256901,-0.005321126,-0.005321126,182.70001,20.400002,-15.6,43.455883,225.51225,0.0,1,0,0,3.1581597,3.0116732,false,0.0
16402,-0.009277344,-0.01953125,-1.0380859,-0.004256901,-0.005321126,-0.005321126,182.70001,20.400002,-15.6,43.455883,225.51225,0.0,1,0,0,3.1581597,3.0116732,false,0.0
16402,-0.009277344,-0.01953125,-1.0380859,-0.004256901,-0.005321126,-0.005321126,182.70001,20.400002,-15.6,43.455883,225.51225,0.0,1,0,0,3.1581597,3.0116732,false,0.0
16402,-0.009277344,-0.01953125,-1.0380859,-0.004256901,-0.005321126,-0.005321126,182.70001,20.400002,-15.6,43.455883,225.51225,0.0,1,0,0,3.1581597,3.0116732,false,0.0
16402,-0.009277344,-0.01953125,-1.0380859,-0.004256901,-0.005321126,-0.005321126,182.70001,20.400002,-15.6,43.455883,225.51225,0.0,1,0,0,3.1581597,3.0116732,false,0.0
16402,-0.009277344,-0.01953125,-1.0380859,-0.004256901,-0.005321126,-0.005321126,182.70001,20.400002,-15.6,43.455883,225.51225,0.0,1,0,0,3.1581597,3.0116732,false,0.0
16402,-0.009277344,-0.01953125,-1.0380859,-0.004256901,-0.005321126,-0.005321126,182.70001,20.400002,-15.6,43.455883,225.51225,0.0,1,0,0,3.1581597,3.0116732,false,0.0
16402,-0.009277344,-0.01953125,-1.0380859,-0.004256901,-0.005321126,-0.005321126,182.70001,20.400002,-15.6,43.455883,225.51225,0.0,1,0,0,3.1581597,3.0116732,false,0.0
16402,-0.009277344,-0.01953125,-1.0380859,-0.004256901,-0.005321126,-0.005321126,182.70001,20.400002,-15.6,43.455883,225.51225,0.0,1,0,0,3.1581597,3.0116732,false,0.0
16402,-0.009277344,-0.01953125,-1.0380859,-0.004256901,-0.005321126,-0.005321126,182.70001,20.400002,-15.6,43.455883,225.51225,0.0,1,0,0,3.1581597,3.0116732,false,0.0
16403,-0.009277344,-0.01953125,-1.0380859,-0.004256901,-0.005321126,-0.005321126,182.70001,20.400002,-15.6,43.455883,225.51225,0.0,1,0,0,3.1581597,3.0116732,false,0.0
16403,-0.009277344,-0.01953125,-1.0380859,-0.004256901,-0.005321126,-0.005321126,182.70001,20.400002,-15.6,43.455883,225.51225,0.0,1,0,0,3.1581597,3.0116732,false,0.0
16403,-0.009277344,-0.01953125,-1.0380859,-0.004256901,-0.005321126,-0.005321126,182.70001,20.400002,-15.6,43.455883,225.51225,0.0,1,0,0,3.1581597,3.0116732,false,0.0
16403,-0.009277344,-0.01953125,-1.0380859,-0.004256901,-0.005321126,-0.005321126,182.70001,20.400002,-15.6,43.455883,225.51225,0.0,1,0,0,3.1581597,3.0116732,false,0.0
16403,-0.009277344,-0.01953125,-1.0380859,-0.004256901,-0.005321126,-0.005321126,182.70001,20.400002,-15.6,43.455883,225.51225,0.0,1,0,0,3.1581597,3.0116732,false,0.0
16403,-0.009277344,-0.01953125,-1.0380859,-0.004256901,-0.005321126,-0.005321126,182.70001,20.400002,-15.6,43.455883,225.51225,0.0,1,0,0,3.1581597,3.0116732,false,0.0
16403,-0.0073242188,-0.018554688,-1.0390625,-0.004256901,-0.0031926755,-0.0021284504,188.1,20.7,-15.3,43.458824,225.51225,0.0,1,0,0,3.1347373,3.0,false,0.0
16452,-0.0073242188,-0.018554688,-1.0390625,-0.004256901,-0.0031926755,-0.0021284504,188.1,20.7,-15.3,43.458824,225.51225,0.0,1,0,0,3.1347373,3.0,false,0.0
16452,-0.0073242188,-0.018554688,-1.0390625,-0.004256901,-0.0031926755,-0.0021284504,188.1,20.7,-15.3,43.458824,225.51225,0.0,1,0,0,3.1347373,3.0,false,0.0
16452,-0.0073242188,-0.018554688,-1.0390625,-0.004256901,-0.0031926755,-0.0021284504,188.1,20.7,-15.3,43.458824,225.51225,0.0,1,0,0,3.1347373,3.0,false,0.0
16452,-0.0073242188,-0.018554688,-1.0390625,-0.004256901,-0.0031926755,-0.0021284504,188.1,20.7,-15.3,43.458824,225.51225,0.0,1,0,0,3.1347373,3.0,false,0.0
16453,-0.0073242188,-0.018554688,-1.0390625,-0.004256901,-0.0031926755,-0.0021284504,188.1,20.7,-15.3,43.458824,225.51225,0.0,1,0,0,3.1347373,3.0,false,0.0
16453,-0.0073242188,-0.018554688,-1.0390625,-0.004256901,-0.0031926755,-0.0021284504,188.1,20.7,-15.3,43.458824,225.51225,0.0,1,0,0,3.1347373,3.0,false,0.0
16453,-0.0073242188,-0.018554688,-1.0390625,-0.004256901,-0.0031926755,-0.0021284504,188.1,20.7,-15.3,43.458824,225.51225,0.0,1,0,0,3.1347373,3.0,false,0.0
16453,-0.0073242188,-0.018554688,-1.0390625,-0.004256901,-0.0031926755,-0.0021284504,188.1,20.7,-15.3,43.458824,225.51225,0.0,1,0,0,3.1347373,3.0,false,0.0
16453,-0.0073242188,-0.018554688,-1.0390625,-0.004256901,-0.0031926755,-0.0021284504,188.1,20.7,-15.3,43.458824,225.51225,0.0,1,0,0,3.1347373,3.0,false,0.0
16453,-0.0073242188,-0.018554688,-1.0390625,-0.004256901,-0.0031926755,-0.0021284504,188.1,20.7,-15.3,43.458824,225.51225,0.0,1,0,0,3.1347373,3.0,false,0.0
16453,-0.0073242188,-0.018554688,-1.0390625,-0.004256901,-0.0031926755,-0.0021284504,188.1,20.7,-15.3,43.458824,225.51225,0.0,1,0,0,3.1347373,3.0,false,0.0
16453,-0.0073242188,-0.018554688,-1.0390625,-0.004256901,-0.0031926755,-0.0021284504,188.1,20.7,-15.3,43.458824,225.51225,0.0,1,0,0,3.1347373,3.0,false,0.0
16453,-0.0073242188,-0.018554688,-1.0390625,-0.004256901,-0.0031926755,-0.0021284504,188.1,20.7,-15.3,43.458824,225.51225,0.0,1,0,0,3.1347373,3.0,false,0.0
16453,-0.0073242188,-0.018554688,-1.0390625,-0.004256901,-0.0031926755,-0.0021284504,188.1,20.7,-15.3,43.458824,225.51225,0.0,1,0,0,3.1347373,3.0,false,0.0
16453,-0.0073242188,-0.018554688,-1.0390625,-0.004256901,-0.0031926755,-0.0021284504,188.1,20.7,-15.3,43.458824,225.51225,0.0,1,0,0,3.1347373,3.0,false,0.0
16453,-0.0073242188,-0.018554688,-1.0390625,-0.004256901,-0.0031926755,-0.0021284504,188.1,20.7,-15.3,43.458824,225.51225,0.0,1,0,0,3.1347373,3.0,false,0.0
16453,-0.0073242188,-0.018554688,-1.0390625,-0.004256901,-0.0031926755,-0.0021284504,188.1,20.7,-15.3,43.458824,225.51225,0.0,1,0,0,3.1347373,3.0,false,0.0
16454,-0.0073242188,-0.018554688,-1.0390625,-0.004256901,-0.0031926755,-0.0021284504,188.1,20.7,-15.3,43.458824,225.51225,0.0,1,0,0,3.1347373,3.0,false,0.0
16454,-0.0073242188,-0.018554688,-1.0390625,-0.004256901,-0.0031926755,-0.0021284504,188.1,20.7,-15.3,43.458824,225.51225,0.0,1,0,0,3.1347373,3.0,false,0.0
16454,-0.0073242188,-0.018554688,-1.0390625,-0.004256901,-0.0031926755,-0.0021284504,188.1,20.7,-15.3,43.458824,225.51225,0.0,1,0,0,3.1347373,3.0,false,0.0
16454,-0.0073242188,-0.018554688,-1.0390625,-0.004256901,-0.0031926755,-0.0021284504,188.1,20.7,-15.3,43.458824,225.51225,0.0,1,0,0,3.1347373,3.0,false,0.0
16454,-0.0073242188,-0.018554688,-1.0390625,-0.004256901,-0.0031926755,-0.0021284504,188.1,20.7,-15.3,43.458824,225.51225,0.0,1,0,0,3.1347373,3.0,false,0.0
16454,-0.0073242188,-0.018554688,-1.0390625,-0.004256901,-0.0031926755,-0.0021284504,188.1,20.7,-15.3,43.458824,225.51225,0.0,1,0,0,3.1347373,3.0,false,0.0
16454,-0.0073242188,-0.018554688,-1.0390625,-0.004256901,-0.0031926755,-0.0021284504,188.1,20.7,-15.3,43.458824,225.51225,0.0,1,0,0,3.1347373,3.0,false,0.0
16454,-0.0073242188,-0.018554688,-1.0390625,-0.004256901,-0.0031926755,-0.0021284504,188.1,20.7,-15.3,43.458824,225.51225,0.0,1,0,0,3.1347373,3.0,false,0.0
16454,-0.0073242188,-0.018554688,-1.0390625,-0.004256901,-0.0031926755,-0.0021284504,188.1,20.7,-15.3,43.458824,225.51225,0.0,1,0,0,3.1347373,3.0,false,0.0
16454,-0.0073242188,-0.018554688,-1.0390625,-0.004256901,-0.0031926755,-0.0021284504,188.1,20.7,-15.3,43.458824,225.51225,0.0,1,0,0,3.1347373,3.0,false,0.0
16454,-0.0073242188,-0.018554688,-1.0390625,-0.004256901,-0.0031926755,-0.0021284504,188.1,20.7,-15.3,43.458824,225.51225,0.0,1,0,0,3.1347373,3.0,false,0.0
16454,-0.0073242188,-0.018554688,-1.0390625,-0.004256901,-0.0031926755,-0.0021284504,188.1,20.7,-15.3,43.458824,225.51225,0.0,1,0,0,3.1347373,3.0,false,0.0
16454,-0.0073242188,-0.018554688,-1.0390625,-0.004256901,-0.0031926755,-0.0021284504,188.1,20.7,-15.3,43.458824,225.51225,0.0,1,0,0,3.1347373,3.0,false,0.0
16454,-0.0073242188,-0.018554688,-1.0390625,-0.004256901,-0.0031926755,-0.0021284504,188.1,20.7,-15.3,43.458824,225.51225,0.0,1,0,0,3.1347373,3.0,false,0.0
16454,-0.0073242188,-0.018554688,-1.0390625,-0.004256901,-0.0031926755,-0.0021284504,188.1,20.7,-15.3,43.458824,225.51225,0.0,1,0,0,3.1347373,3.0,false,0.0
16454,-0.0073242188,-0.018554688,-1.0390625,-0.004256901,-0.0031926755,-0.0021284504,188.1,20.7,-15.3,43.458824,225.51225,0.0,1,0,0,3.1347373,3.0,false,0.0
16454,-0.0073242188,-0.018554688,-1.0390625,-0.004256901,-0.0031926755,-0.0021284504,188.1,20.7,-15.3,43.458824,225.51225,0.0,1,0,0,3.1347373,3.0,false,0.0
16454,-0.0073242188,-0.018554688,-1.0390625,-0.004256901,-0.0031926755,-0.0021284504,188.1,20.7,-15.3,43.458824,225.51225,0.0,1,0,0,3.1347373,3.0,false,0.0
16454,-0.0073242188,-0.018554688,-1.0390625,-0.004256901,-0.0031926755,-0.0021284504,188.1,20.7,-15.3,43.458824,225.51225,0.0,1,0,0,3.1347373,3.0,false,0.0
16454,-0.0073242188,-0.018554688,-1.0390625,-0.004256901,-0.0031926755,-0.0021284504,188.1,20.7,-15.3,43.458824,225.51225,0.0,1,0,0,3.1347373,3.0,false,0.0
16454,-0.0073242188,-0.018554688,-1.0390625,-0.004256901,-0.0031926755,-0.0021284504,188.1,20.7,-15.3,43.458824,225.51225,0.0,1,0,0,3.1347373,3.0,false,0.0
16454,-0.0073242188,-0.018554688,-1.0390625,-0.004256901,-0.0031926755,-0.0021284504,188.1,20.7,-15.3,43.458824,225.51225,0.0,1,0,0,3.1347373,3.0,false,0.0
16454,-0.0073242188,-0.018554688,-1.0390625,-0.004256901,-0.0031926755,-0.0021284504,188.1,20.7,-15.3,43.458824,225.51225,0.0,1,0,0,3.1347373,3.0,false,0.0
16454,-0.0073242188,-0.018554688,-1.0390625,-0.004256901,-0.0031926755,-0.0021284504,188.1,20.7,-15.3,43.458824,225.51225,0.0,1,0,0,3.1347373,3.0,false,0.0
16454,-0.0073242188,-0.018554688,-1.0390625,-0.004256901,-0.0031926755,-0.0021284504,188.1,20.7,-15.3,43.458824,225.51225,0.0,1,0,0,3.1347373,3.0,false,0.0
16454,-0.0107421875,-0.017578125,-1.0361328,-0.006385351,-0.005321126,-0.0021284504,185.40001,20.400002,-17.7,43.385292,225.51225,0.0,1,0,0,3.1581597,3.0,false,0.0
16510,-0.0107421875,-0.017578125,-1.0361328,-0.006385351,-0.005321126,-0.0021284504,185.40001,20.400002,-17.7,43.385292,225.51225,0.0,1,0,0,3.1581597,3.0,false,0.0
16518,-0.0107421875,-0.017578125,-1.0361328,-0.006385351,-0.005321126,-0.0021284504,185.40001,20.400002,-17.7,43.385292,225.51225,0.0,1,0,0,3.1581597,3.0,false,0.0
16518,-0.0107421875,-0.017578125,-1.0361328,-0.006385351,-0.005321126,-0.0021284504,185.40001,20.400002,-17.7,43.385292,225.51225,0.0,1,0,0,3.1581597,3.0,false,0.0
16518,-0.0107421875,-0.017578125,-1.0361328,-0.006385351,-0.005321126,-0.0021284504,185.40001,20.400002,-17.7,43.385292,225.51225,0.0,1,0,0,3.1581597,3.0,false,0.0
16518,-0.0107421875,-0.017578125,-1.0361328,-0.006385351,-0.005321126,-0.0021284504,185.40001,20.400002,-17.7,43.385292,225.51225,0.0,1,0,0,3.1581597,3.0,false,0.0
16518,-0.0107421875,-0.017578125,-1.0361328,-0.006385351,-0.005321126,-0.0021284504,185.40001,20.400002,-17.7,43.385292,225.51225,0.0,1,0,0,3.1581597,3.0,false,0.0
16518,-0.0107421875,-0.017578125,-1.0361328,-0.006385351,-0.005321126,-0.0021284504,185.40001,20.400002,-17.7,43.385292,225.51225,0.0,1,0,0,3.1581597,3.0,false,0.0
16518,-0.0107421875,-0.017578125,-1.0361328,-0.006385351,-0.005321126,-0.0021284504,185.40001,20.400002,-17.7,43.385292,225.51225,0.0,1,0,0,3.1581597,3.0,false,0.0
16518,-0.0107421875,-0.017578125,-1.0361328,-0.006385351,-0.005321126,-0.0021284504,185.40001,20.400002,-17.7,43.385292,225.51225,0.0,1,0,0,3.1581597,3.0,false,0.0
16518,-0.0107421875,-0.017578125,-1.0361328,-0.006385351,-0.005321126,-0.0021284504,185.40001,20.400002,-17.7,43.385292,225.51225,0.0,1,0,0,3.1581597,3.0,false,0.0
16518,-0.0107421875,-0.017578125,-1.0361328,-0.006385351,-0.005321126,-0.0021284504,185.40001,20.400002,-17.7,43.385292,225.51225,0.0,1,0,0,3.1581597,3.0,false,0.0
16518,-0.0107421875,-0.017578125,-1.0361328,-0.006385351,-0.005321126,-0.0021284504,185.40001,20.400002,-17.7,43.385292,225.51225,0.0,1,0,0,3.1581597,3.0,false,0.0
16518,-0.0107421875,-0.017578125,-1.0361328,-0.006385351,-0.005321126,-0.0021284504,185.40001,20.400002,-17.7,43.385292,225.51225,0.0,1,0,0,3.1581597,3.0,false,0.0
16518,-0.0107421875,-0.017578125,-1.0361328,-0.006385351,-0.005321126,-0.0021284504,185.40001,20.400002,-17.7,43.385292,225.51225,0.0,1,0,0,3.1581597,3.0,false,0.0
16518,-0.0107421875,-0.017578125,-1.0361328,-0.006385351,-0.005321126,-0.0021284504,185.40001,20.400002,-17.7,43.385292,225.51225,0.0,1,0,0,3.1581597,3.0,false,0.0
16518,-0.0107421875,-0.017578125,-1.0361328,-0.006385351,-0.005321126,-0.0021284504,185.40001,20.400002,-17.7,43.385292,225.51225,0.0,1,0,0,3.1581597,3.0,false,0.0
16518,-0.0107421875,-0.017578125,-1.0361328,-0.006385351,-0.005321126,-0.0021284504,185.40001,20.400002,-17.7,43.385292,225.51225,0.0,1,0,0,3.1581597,3.0,false,0.0
16518,-0.0107421875,-0.017578125,-1.0361328,-0.006385351,-0.005321126,-0.0021284504,185.40001,20.400002,-17.7,43.385292,225.51225,0.0,1,0,0,3.1581597,3.0,false,0.0
16518,-0.0107421875,-0.017578125,-1.0361328,-0.006385351,-0.005321126,-0.0021284504,185.40001,20.400002,-17.7,43.385292,225.51225,0.0,1,0,0,3.1581597,3.0,false,0.0
16518,-0.0107421875,-0.017578125,-1.0361328,-0.006385351,-0.005321126,-0.0021284504,185.40001,20.400002,-17.7,43.385292,225.51225,0.0,1,0,0,3.1581597,3.0,false,0.0
16518,-0.0107421875,-0.017578125,-1.0361328,-0.006385351,-0.005321126,-0.0021284504,185.40001,20.400002,-17.7,43.385292,225.51225,0.0,1,0,0,3.1581597,3.0,false,0.0
16518,-0.0107421875,-0.017578125,-1.0361328,-0.006385351,-0.005321126,-0.0021284504,185.40001,20.400002,-17.7,43.385292,225.51225,0.0,1,0,0,3.1581597,3.0,false,0.0
16518,-0.0107421875,-0.017578125,-1.0361328,-0.006385351,-0.005321126,-0.0021284504,185.40001,20.400002,-17.7,43.385292,225.51225,0.0,1,0,0,3.1581597,3.0,false,0.0
16518,-0.0107421875,-0.017578125,-1.0361328,-0.006385351,-0.005321126,-0.0021284504,185.40001,20.400002,-17.7,43.385292,225.51225,0.0,1,0,0,3.1581597,3.0,false,0.0
16518,-0.0107421875,-0.017578125,-1.0361328,-0.006385351,-0.005321126,-0.0021284504,185.40001,20.400002,-17.7,43.385292,225.51225,0.0,1,0,0,3.1581597,3.0,false,0.0
16518,-0.0107421875,-0.017578125,-1.0361328,-0.006385351,-0.005321126,-0.0021284504,185.40001,20.400002,-17.7,43.385292,225.51225,0.0,1,0,0,3.1581597,3.0,false,0.0
16518,-0.0107421875,-0.017578125,-1.0361328,-0.006385351,-0.005321126,-0.0021284504,185.40001,20.400002,-17.7,43.385292,225.51225,0.0,1,0,0,3.1581597,3.0,false,0.0
16518,-0.0107421875,-0.017578125,-1.0361328,-0.006385351,-0.005321126,-0.0021284504,185.40001,20.400002,-17.7,43.385292,225.51225,0.0,1,0,0,3.1581597,3.0,false,0.0
16518,-0.0107421875,-0.017578125,-1.0361328,-0.006385351,-0.005321126,-0.0021284504,185.40001,20.400002,-17.7,43.385292,225.51225,0.0,1,0,0,3.1581597,3.0,false,0.0
16519,-0.0107421875,-0.017578125,-1.0361328,-0.006385351,-0.005321126,-0.0021284504,185.40001,20.400002,-17.7,43.385292,225.51225,0.0,1,0,0,3.1581597,3.0,false,0.0
16519,-0.0107421875,-0.017578125,-1.0361328,-0.006385351,-0.005321126,-0.0021284504,185.40001,20.400002,-17.7,43.385292,225.51225,0.0,1,0,0,3.1581597,3.0,false,0.0
16519,-0.0107421875,-0.017578125,-1.0361328,-0.006385351,-0.005321126,-0.0021284504,185.40001,20.400002,-17.7,43.385292,225.51225,0.0,1,0,0,3.1581597,3.0,false,0.0
16519,-0.0107421875,-0.017578125,-1.0361328,-0.006385351,-0.005321126,-0.0021284504,185.40001,20.400002,-17.7,43.385292,225.51225,0.0,1,0,0,3.1581597,3.0,false,0.0
16519,-0.0107421875,-0.017578125,-1.0361328,-0.006385351,-0.005321126,-0.0021284504,185.40001,20.400002,-17.7,43.385292,225.51225,0.0,1,0,0,3.1581597,3.0,false,0.0
16519,-0.0107421875,-0.017578125,-1.0361328,-0.006385351,-0.005321126,-0.0021284504,185.40001,20.400002,-17.7,43.385292,225.51225,0.0,1,0,0,3.1581597,3.0,false,0.0
16519,-0.0107421875,-0.017578125,-1.0361328,-0.006385351,-0.005321126,-0.0021284504,185.40001,20.400002,-17.7,43.385292,225.51225,0.0,1,0,0,3.1581597,3.0,false,0.0
16519,-0.0107421875,-0.017578125,-1.0361328,-0.006385351,-0.005321126,-0.0021284504,185.40001,20.400002,-17.7,43.385292,225.51225,0.0,1,0,0,3.1581597,3.0,false,0.0
16519,-0.0107421875,-0.017578125,-1.0361328,-0.006385351,-0.005321126,-0.0021284504,185.40001,20.400002,-17.7,43.385292,225.51225,0.0,1,0,0,3.1581597,3.0,false,0.0
16519,-0.0107421875,-0.017578125,-1.0361328,-0.006385351,-0.005321126,-0.0021284504,185.40001,20.400002,-17.7,43.385292,225.51225,0.0,1,0,0,3.1581597,3.0,false,0.0
16519,-0.0107421875,-0.017578125,-1.0361328,-0.006385351,-0.005321126,-0.0021284504,185.40001,20.400002,-17.7,43.385292,225.51225,0.0,1,0,0,3.1581597,3.0,false,0.0
16519,-0.0107421875,-0.017578125,-1.0361328,-0.006385351,-0.005321126,-0.0021284504,185.40001,20.400002,-17.7,43.385292,225.51225,0.0,1,0,0,3.1581597,3.0,false,0.0
16519,-0.0107421875,-0.017578125,-1.0361328,-0.006385351,-0.005321126,-0.0021284504,185.40001,20.400002,-17.7,43.385292,225.51225,0.0,1,0,0,3.1581597,3.0,false,0.0
16519,-0.009277344,-0.020507812,-1.0332031,-0.007449576,-0.009578027,-0.004256901,185.1,20.7,-12.6,43.429413,225.51225,0.0,1,0,0,3.152285,3.0175478,false,0.0
16542,-0.009277344,-0.020507812,-1.0332031,-0.007449576,-0.009578027,-0.004256901,185.1,20.7,-12.6,43.429413,225.51225,0.0,1,0,0,3.152285,3.0175478,false,0.0
16542,-0.009277344,-0.020507812,-1.0332031,-0.007449576,-0.009578027,-0.004256901,185.1,20.7,-12.6,43.429413,225.51225,0.0,1,0,0,3.152285,3.0175478,false,0.0
16542,-0.009277344,-0.020507812,-1.0332031,-0.007449576,-0.009578027,-0.004256901,185.1,20.7,-12.6,43.429413,225.51225,0.0,1,0,0,3.152285,3.0175478,false,0.0
16542,-0.009277344,-0.020507812,-1.0332031,-0.007449576,-0.009578027,-0.004256901,185.1,20.7,-12.6,43.429413,225.51225,0.0,1,0,0,3.152285,3.0175478,false,0.0
16542,-0.009277344,-0.020507812,-1.0332031,-0.007449576,-0.009578027,-0.004256901,185.1,20.7,-12.6,43.429413,225.51225,0.0,1,0,0,3.152285,3.0175478,false,0.0
16542,-0.009277344,-0.020507812,-1.0332031,-0.007449576,-0.009578027,-0.004256901,185.1,20.7,-12.6,43.429413,225.51225,0.0,1,0,0,3.152285,3.0175478,false,0.0
16542,-0.009277344,-0.020507812,-1.0332031,-0.007449576,-0.009578027,-0.004256901,185.1,20.7,-12.6,43.429413,225.51225,0.0,1,0,0,3.152285,3.0175478,false,0.0
16542,-0.009277344,-0.020507812,-1.0332031,-0.007449576,-0.009578027,-0.004256901,185.1,20.7,-12.6,43.429413,225.51225,0.0,1,0,0,3.152285,3.0175478,false,0.0
16542,-0.009277344,-0.020507812,-1.0332031,-0.007449576,-0.009578027,-0.004256901,185.1,20.7,-12.6,43.429413,225.51225,0.0,1,0,0,3.152285,3.0175478,false,0.0
16542,-0.009277344,-0.020507812,-1.0332031,-0.007449576,-0.009578027,-0.004256901,185.1,20.7,-12.6,43.429413,225.51225,0.0,1,0,0,3.152285,3.0175478,false,0.0
16542,-0.009277344,-0.020507812,-1.0332031,-0.007449576,-0.009578027,-0.004256901,185.1,20.7,-12.6,43.429413,225.51225,0.0,1,0,0,3.152285,3.0175478,false,0.0
16542,-0.009277344,-0.020507812,-1.0332031,-0.007449576,-0.009578027,-0.004256901,185.1,20.7,-12.6,43.429413,225.51225,0.0,1,0,0,3.152285,3.0175478,false,0.0
16542,-0.009277344,-0.020507812,-1.0332031,-0.007449576,-0.009578027,-0.004256901,185.1,20.7,-12.6,43.429413,225.51225,0.0,1,0,0,3.152285,3.0175478,false,0.0
16542,-0.009277344,-0.020507812,-1.0332031,-0.007449576,-0.009578027,-0.004256901,185.1,20.7,-12.6,43.429413,225.51225,0.0,1,0,0,3.152285,3.0175478,false,0.0
16542,-0.009277344,-0.020507812,-1.0332031,-0.007449576,-0.009578027,-0.004256901,185.1,20.7,-12.6,43.429413,225.51225,0.0,1,0,0,3.152285,3.0175478,false,0.0
16542,-0.009277344,-0.020507812,-1.0332031,-0.007449576,-0.009578027,-0.004256901,185.1,20.7,-12.6,43.429413,225.51225,0.0,1,0,0,3.152285,3.0175478,false,0.0
16542,-0.009277344,-0.020507812,-1.0332031,-0.007449576,-0.009578027,-0.004256901,185.1,20.7,-12.6,43.429413,225.51225,0.0,1,0,0,3.152285,3.0175478,false,0.0
16542,-0.009277344,-0.020507812,-1.0332031,-0.007449576,-0.009578027,-0.004256901,185.1,20.7,-12.6,43.429413,225.51225,0.0,1,0,0,3.152285,3.0175478,false,0.0
16542,-0.009277344,-0.020507812,-1.0332031,-0.007449576,-0.009578027,-0.004256901,185.1,20.7,-12.6,43.429413,225.51225,0.0,1,0,0,3.152285,3.0175478,false,0.0
16542,-0.009277344,-0.020507812,-1.0332031,-0.007449576,-0.009578027,-0.004256901,185.1,20.7,-12.6,43.429413,225.51225,0.0,1,0,0,3.152285,3.0175478,false,0.0
16542,-0.009277344,-0.020507812,-1.0332031,-0.007449576,-0.009578027,-0.004256901,185.1,20.7,-12.6,43.429413,225.51225,0.0,1,0,0,3.152285,3.0175478,false,0.0
16542,-0.009277344,-0.020507812,-1.0332031,-0.007449576,-0.009578027,-0.004256901,185.1,20.7,-12.6,43.429413,225.51225,0.0,1,0,0,3.152285,3.0175478,false,0.0
16542,-0.009277344,-0.020507812,-1.0332031,-0.007449576,-0.009578027,-0.004256901,185.1,20.7,-12.6,43.429413,225.51225,0.0,1,0,0,3.152285,3.0175478,false,0.0
16547,-0.009277344,-0.020507812,-1.0332031,-0.007449576,-0.009578027,-0.004256901,185.1,20.7,-12.6,43.429413,225.51225,0.0,1,0,0,3.152285,3.0175478,false,0.0
16547,-0.009277344,-0.020507812,-1.0332031,-0.007449576,-0.009578027,-0.004256901,185.1,20.7,-12.6,43.429413,225.51225,0.0,1,0,0,3.152285,3.0175478,false,0.0
16547,-0.009277344,-0.020507812,-1.0332031,-0.007449576,-0.009578027,-0.004256901,185.1,20.7,-12.6,43.429413,225.51225,0.0,1,0,0,3.152285,3.0175478,false,0.0
16547,-0.009277344,-0.020507812,-1.0332031,-0.007449576,-0.009578027,-0.004256901,185.1,20.7,-12.6,43.429413,225.51225,0.0,1,0,0,3.152285,3.0175478,false,0.0
16547,-0.009277344,-0.020507812,-1.0332031,-0.007449576,-0.009578027,-0.004256901,185.1,20.7,-12.6,43.429413,225.51225,0.0,1,0,0,3.152285,3.0175478,false,0.0
16547,-0.009277344,-0.020507812,-1.0332031,-0.007449576,-0.009578027,-0.004256901,185.1,20.7,-12.6,43.429413,225.51225,0.0,1,0,0,3.152285,3.0175478,false,0.0
16547,-0.009277344,-0.020507812,-1.0332031,-0.007449576,-0.009578027,-0.004256901,185.1,20.7,-12.6,43.429413,225.51225,0.0,1,0,0,3.152285,3.0175478,false,0.0
16548,-0.009277344,-0.020507812,-1.0332031,-0.007449576,-0.009578027,-0.004256901,185.1,20.7,-12.6,43.429413,225.51225,0.0,1,0,0,3.152285,3.0175478,false,0.0
16548,-0.009277344,-0.020507812,-1.0332031,-0.007449576,-0.009578027,-0.004256901,185.1,20.7,-12.6,43.429413,225.51225,0.0,1,0,0,3.152285,3.0175478,false,0.0
16548,-0.009277344,-0.020507812,-1.0332031,-0.007449576,-0.009578027,-0.004256901,185.1,20.7,-12.6,43.429413,225.51225,0.0,1,0,0,3.152285,3.0175478,false,0.0
16548,-0.009277344,-0.020507812,-1.0332031,-0.007449576,-0.009578027,-0.004256901,185.1,20.7,-12.6,43.429413,225.51225,0.0,1,0,0,3.152285,3.0175478,false,0.0
16548,-0.009277344,-0.020507812,-1.0332031,-0.007449576,-0.009578027,-0.004256901,185.1,20.7,-12.6,43.429413,225.51225,0.0,1,0,0,3.152285,3.0175478,false,0.0
16548,-0.009277344,-0.020507812,-1.0332031,-0.007449576,-0.009578027,-0.004256901,185.1,20.7,-12.6,43.429413,225.51225,0.0,1,0,0,3.152285,3.0175478,false,0.0
16548,-0.009277344,-0.020507812,-1.0332031,-0.007449576,-0.009578027,-0.004256901,185.1,20.7,-12.6,43.429413,225.51225,0.0,1,0,0,3.152285,3.0175478,false,0.0
16548,-0.009277344,-0.020507812,-1.0332031,-0.007449576,-0.009578027,-0.004256901,185.1,20.7,-12.6,43.429413,225.51225,0.0,1,0,0,3.152285,3.0175478,false,0.0
16548,-0.009277344,-0.020507812,-1.0332031,-0.007449576,-0.009578027,-0.004256901,185.1,20.7,-12.6,43.429413,225.51225,0.0,1,0,0,3.152285,3.0175478,false,0.0
16548,-0.009277344,-0.020507812,-1.0332031,-0.007449576,-0.009578027,-0.004256901,185.1,20.7,-12.6,43.429413,225.51225,0.0,1,0,0,3.152285,3.0175478,false,0.0
16548,-0.009277344,-0.020507812,-1.0332031,-0.007449576,-0.009578027,-0.004256901,185.1,20.7,-12.6,43.429413,225.51225,0.0,1,0,0,3.152285,3.0175478,false,0.0
16548,-0.009277344,-0.020507812,-1.0332031,-0.007449576,-0.009578027,-0.004256901,185.1,20.7,-12.6,43.429413,225.51225,0.0,1,0,0,3.152285,3.0175478,false,0.0
16548,-0.0087890625,-0.018066406,-1.0292969,-0.005321126,-0.004256901,-0.0031926755,186.0,19.5,-16.2,43.429413,225.51225,0.0,1,0,0,3.1288624,2.9941254,false,0.0
16621,-0.0087890625,-0.018066406,-1.0292969,-0.005321126,-0.004256901,-0.0031926755,186.0,19.5,-16.2,43.429413,225.51225,0.0,1,0,0,3.1288624,2.9941254,false,0.0
16621,-0.0087890625,-0.018066406,-1.0292969,-0.005321126,-0.004256901,-0.0031926755,186.0,19.5,-16.2,43.429413,225.51225,0.0,1,0,0,3.1288624,2.9941254,false,0.0
16621,-0.0087890625,-0.018066406,-1.0292969,-0.005321126,-0.004256901,-0.0031926755,186.0,19.5,-16.2,43.429413,225.51225,0.0,1,0,0,3.1288624,2.9941254,false,0.0
16621,-0.0087890625,-0.018066406,-1.0292969,-0.005321126,-0.004256901,-0.0031926755,186.0,19.5,-16.2,43.429413,225.51225,0.0,1,0,0,3.1288624,2.9941254,false,0.0
16621,-0.0087890625,-0.018066406,-1.0292969,-0.005321126,-0.004256901,-0.0031926755,186.0,19.5,-16.2,43.429413,225.51225,0.0,1,0,0,3.1288624,2.9941254,false,0.0
16621,-0.0087890625,-0.018066406,-1.0292969,-0.005321126,-0.004256901,-0.0031926755,186.0,19.5,-16.2,43.429413,225.51225,0.0,1,0,0,3.1288624,2.9941254,false,0.0
16621,-0.0087890625,-0.018066406,-1.0292969,-0.005321126,-0.004256901,-0.0031926755,186.0,19.5,-16.2,43.429413,225.51225,0.0,1,0,0,3.1288624,2.9941254,false,0.0
16621,-0.0087890625,-0.018066406,-1.0292969,-0.005321126,-0.004256901,-0.0031926755,186.0,19.5,-16.2,43.429413,225.51225,0.0,1,0,0,3.1288624,2.9941254,false,0.0
16621,-0.0087890625,-0.018066406,-1.0292969,-0.005321126,-0.004256901,-0.0031926755,186.0,19.5,-16.2,43.429413,225.51225,0.0,1,0,0,3.1288624,2.9941254,false,0.0
16621,-0.0087890625,-0.018066406,-1.0292969,-0.005321126,-0.004256901,-0.0031926755,186.0,19.5,-16.2,43.429413,225.51225,0.0,1,0,0,3.1288624,2.9941254,false,0.0
16621,-0.0087890625,-0.018066406,-1.0292969,-0.005321126,-0.004256901,-0.0031926755,186.0,19.5,-16.2,43.429413,225.51225,0.0,1,0,0,3.1288624,2.9941254,false,0.0
16621,-0.0087890625,-0.018066406,-1.0292969,-0.005321126,-0.004256901,-0.0031926755,186.0,19.5,-16.2,43.429413,225.51225,0.0,1,0,0,3.1288624,2.9941254,false,0.0
16621,-0.0087890625,-0.018066406,-1.0292969,-0.005321126,-0.004256901,-0.0031926755,186.0,19.5,-16.2,43.429413,225.51225,0.0,1,0,0,3.1288624,2.9941254,false,0.0
16621,-0.0087890625,-0.018066406,-1.0292969,-0.005321126,-0.004256901,-0.0031926755,186.0,19.5,-16.2,43.429413,225.51225,0.0,1,0,0,3.1288624,2.9941254,false,0.0
16621,-0.0087890625,-0.018066406,-1.0292969,-0.005321126,-0.004256901,-0.0031926755,186.0,19.5,-16.2,43.429413,225.51225,0.0,1,0,0,3.1288624,2.9941254,false,0.0
16621,-0.0087890625,-0.018066406,-1.0292969,-0.005321126,-0.004256901,-0.0031926755,186.0,19.5,-16.2,43.429413,225.51225,0.0,1,0,0,3.1288624,2.9941254,false,0.0
16621,-0.0087890625,-0.018066406,-1.0292969,-0.005321126,-0.004256901,-0.0031926755,186.0,19.5,-16.2,43.429413,225.51225,0.0,1,0,0,3.1288624,2.9941254,false,0.0
16621,-0.0087890625,-0.018066406,-1.0292969,-0.005321126,-0.004256901,-0.0031926755,186.0,19.5,-16.2,43.429413,225.51225,0.0,1,0,0,3.1288624,2.9941254,false,0.0
16621,-0.0087890625,-0.018066406,-1.0292969,-0.005321126,-0.004256901,-0.0031926755,186.0,19.5,-16.2,43.429413,225.51225,0.0,1,0,0,3.1288624,2.9941254,false,0.0
16621,-0.0087890625,-0.018066406,-1.0292969,-0.005321126,-0.004256901,-0.0031926755,186.0,19.5,-16.2,43.429413,225.51225,0.0,1,0,0,3.1288624,2.9941254,false,0.0
16621,-0.0087890625,-0.018066406,-1.0292969,-0.005321126,-0.004256901,-0.0031926755,186.0,19.5,-16.2,43.429413,225.51225,0.0,1,0,0,3.1288624,2.9941254,false,0.0
16621,-0.0087890625,-0.018066406,-1.0292969,-0.005321126,-0.004256901,-0.0031926755,186.0,19.5,-16.2,43.429413,225.51225,0.0,1,0,0,3.1288624,2.9941254,false,0.0
16621,-0.0087890625,-0.018066406,-1.0292969,-0.005321126,-0.004256901,-0.0031926755,186.0,19.5,-16.2,43.429413,225.51225,0.0,1,0,0,3.1288624,2.9941254,false,0.0
16621,-0.0087890625,-0.018066406,-1.0292969,-0.005321126,-0.004256901,-0.0031926755,186.0,19.5,-16.2,43.429413,225.51225,0.0,1,0,0,3.1288624,2.9941254,false,0.0
16621,-0.0087890625,-0.018066406,-1.0292969,-0.005321126,-0.004256901,-0.0031926755,186.0,19.5,-16.2,43.429413,225.51225,0.0,1,0,0,3.1288624,2.9941254,false,0.0
16621,-0.0087890625,-0.018066406,-1.0292969,-0.005321126,-0.004256901,-0.0031926755,186.0,19.5,-16.2,43.429413,225.51225,0.0,1,0,0,3.1288624,2.9941254,false,0.0
16621,-0.0087890625,-0.018066406,-1.0292969,-0.005321126,-0.004256901,-0.0031926755,186.0,19.5,-16.2,43.429413,225.51225,0.0,1,0,0,3.1288624,2.9941254,false,0.0
16621,-0.0087890625,-0.018066406,-1.0292969,-0.005321126,-0.004256901,-0.0031926755,186.0,19.5,-16.2,43.429413,225.51225,0.0,1,0,0,3.1288624,2.9941254,false,0.0
16621,-0.0087890625,-0.018066406,-1.0292969,-0.005321126,-0.004256901,-0.0031926755,186.0,19.5,-16.2,43.429413,225.51225,0.0,1,0,0,3.1288624,2.9941254,false,0.0
16621,-0.0087890625,-0.018066406,-1.0292969,-0.005321126,-0.004256901,-0.0031926755,186.0,19.5,-16.2,43.429413,225.51225,0.0,1,0,0,3.1288624,2.9941254,false,0.0
16621,-0.0087890625,-0.018066406,-1.0292969,-0.005321126,-0.004256901,-0.0031926755,186.0,19.5,-16.2,43.429413,225.51225,0.0,1,0,0,3.1288624,2.9941254,false,0.0
16621,-0.0087890625,-0.018066406,-1.0292969,-0.005321126,-0.004256901,-0.0031926755,186.0,19.5,-16.2,43.429413,225.51225,0.0,1,0,0,3.1288624,2.9941254,false,0.0
16622,-0.0087890625,-0.018066406,-1.0292969,-0.005321126,-0.004256901,-0.0031926755,186.0,19.5,-16.2,43.429413,225.51225,0.0,1,0,0,3.1288624,2.9941254,false,0.0
16622,-0.0087890625,-0.018066406,-1.0292969,-0.005321126,-0.004256901,-0.0031926755,186.0,19.5,-16.2,43.429413,225.51225,0.0,1,0,0,3.1288624,2.9941254,false,0.0
16622,-0.0087890625,-0.018066406,-1.0292969,-0.005321126,-0.004256901,-0.0031926755,186.0,19.5,-16.2,43.429413,225.51225,0.0,1,0,0,3.1288624,2.9941254,false,0.0
16622,-0.0087890625,-0.018066406,-1.0292969,-0.005321126,-0.004256901,-0.0031926755,186.0,19.5,-16.2,43.429413,225.51225,0.0,1,0,0,3.1288624,2.9941254,false,0.0
16622,-0.0087890625,-0.018066406,-1.0292969,-0.005321126,-0.004256901,-0.0031926755,186.0,19.5,-16.2,43.429413,225.51225,0.0,1,0,0,3.1288624,2.9941254,false,0.0
16622,-0.0087890625,-0.018066406,-1.0292969,-0.005321126,-0.004256901,-0.0031926755,186.0,19.5,-16.2,43.429413,225.51225,0.0,1,0,0,3.1288624,2.9941254,false,0.0
16622,-0.0087890625,-0.018066406,-1.0292969,-0.005321126,-0.004256901,-0.0031926755,186.0,19.5,-16.2,43.429413,225.51225,0.0,1,0,0,3.1288624,2.9941254,false,0.0
16622,-0.0087890625,-0.018066406,-1.0292969,-0.005321126,-0.004256901,-0.0031926755,186.0,19.5,-16.2,43.429413,225.51225,0.0,1,0,0,3.1288624,2.9941254,false,0.0
16622,-0.0087890625,-0.018066406,-1.0292969,-0.005321126,-0.004256901,-0.0031926755,186.0,19.5,-16.2,43.429413,225.51225,0.0,1,0,0,3.1288624,2.9941254,false,0.0
16622,-0.0087890625,-0.018066406,-1.0292969,-0.005321126,-0.004256901,-0.0031926755,186.0,19.5,-16.2,43.429413,225.51225,0.0,1,0,0,3.1288624,2.9941254,false,0.0
16622,-0.005859375,-0.020507812,-1.0380859,-0.006385351,-0.005321126,-0.0031926755,185.40001,18.300001,-14.400001,43.39412,225.51225,0.0,1,0,0,3.152285,3.0116732,false,0.0
16638,-0.005859375,-0.020507812,-1.0380859,-0.006385351,-0.005321126,-0.0031926755,185.40001,18.300001,-14.400001,43.39412,225.51225,0.0,1,0,0,3.152285,3.0116732,false,0.0
16639,-0.005859375,-0.020507812,-1.0380859,-0.006385351,-0.005321126,-0.0031926755,185.40001,18.300001,-14.400001,43.39412,225.51225,0.0,1,0,0,3.152285,3.0116732,false,0.0
16639,-0.005859375,-0.020507812,-1.0380859,-0.006385351,-0.005321126,-0.0031926755,185.40001,18.300001,-14.400001,43.39412,225.51225,0.0,1,0,0,3.152285,3.0116732,false,0.0
16639,-0.005859375,-0.020507812,-1.0380859,-0.006385351,-0.005321126,-0.0031926755,185.40001,18.300001,-14.400001,43.39412,225.51225,0.0,1,0,0,3.152285,3.0116732,false,0.0
16647,-0.005859375,-0.020507812,-1.0380859,-0.006385351,-0.005321126,-0.0031926755,185.40001,18.300001,-14.400001,43.39412,225.51225,0.0,1,0,0,3.152285,3.0116732,false,0.0
16647,-0.005859375,-0.020507812,-1.0380859,-0.006385351,-0.005321126,-0.0031926755,185.40001,18.300001,-14.400001,43.39412,225.51225,0.0,1,0,0,3.152285,3.0116732,false,0.0
16647,-0.005859375,-0.020507812,-1.0380859,-0.006385351,-0.005321126,-0.0031926755,185.40001,18.300001,-14.400001,43.39412,225.51225,0.0,1,0,0,3.152285,3.0116732,false,0.0
16647,-0.005859375,-0.020507812,-1.0380859,-0.006385351,-0.005321126,-0.0031926755,185.40001,18.300001,-14.400001,43.39412,225.51225,0.0,1,0,0,3.152285,3.0116732,false,0.0
16648,-0.005859375,-0.020507812,-1.0380859,-0.006385351,-0.005321126,-0.0031926755,185.40001,18.300001,-14.400001,43.39412,225.51225,0.0,1,0,0,3.152285,3.0116732,false,0.0
16648,-0.005859375,-0.020507812,-1.0380859,-0.006385351,-0.005321126,-0.0031926755,185.40001,18.300001,-14.400001,43.39412,225.51225,0.0,1,0,0,3.152285,3.0116732,false,0.0
16648,-0.005859375,-0.020507812,-1.0380859,-0.006385351,-0.005321126,-0.0031926755,185.40001,18.300001,-14.400001,43.39412,225.51225,0.0,1,0,0,3.152285,3.0116732,false,0.0
16648,-0.005859375,-0.020507812,-1.0380859,-0.006385351,-0.005321126,-0.0031926755,185.40001,18.300001,-14.400001,43.39412,225.51225,0.0,1,0,0,3.152285,3.0116732,false,0.0
16648,-0.005859375,-0.020507812,-1.0380859,-0.006385351,-0.005321126,-0.0031926755,185.40001,18.300001,-14.400001,43.39412,225.51225,0.0,1,0,0,3.152285,3.0116732,false,0.0
16648,-0.005859375,-0.020507812,-1.0380859,-0.006385351,-0.005321126,-0.0031926755,185.40001,18.300001,-14.400001,43.39412,225.51225,0.0,1,0,0,3.152285,3.0116732,false,0.0
16648,-0.005859375,-0.020507812,-1.0380859,-0.006385351,-0.005321126,-0.0031926755,185.40001,18.300001,-14.400001,43.39412,225.51225,0.0,1,0,0,3.152285,3.0116732,false,0.0
16648,-0.005859375,-0.020507812,-1.0380859,-0.006385351,-0.005321126,-0.0031926755,185.40001,18.300001,-14.400001,43.39412,225.51225,0.0,1,0,0,3.152285,3.0116732,false,0.0
16648,-0.005859375,-0.020507812,-1.0380859,-0.006385351,-0.005321126,-0.0031926755,185.40001,18.300001,-14.400001,43.39412,225.51225,0.0,1,0,0,3.152285,3.0116732,false,0.0
16648,-0.005859375,-0.020507812,-1.0380859,-0.006385351,-0.005321126,-0.0031926755,185.40001,18.300001,-14.400001,43.39412,225.51225,0.0,1,0,0,3.152285,3.0116732,false,0.0
16648,-0.005859375,-0.020507812,-1.0380859,-0.006385351,-0.005321126,-0.0031926755,185.40001,18.300001,-14.400001,43.39412,225.51225,0.0,1,0,0,3.152285,3.0116732,false,0.0
16648,-0.005859375,-0.020507812,-1.0380859,-0.006385351,-0.005321126,-0.0031926755,185.40001,18.300001,-14.400001,43.39412,225.51225,0.0,1,0,0,3.152285,3.0116732,false,0.0
16648,-0.005859375,-0.020507812,-1.0380859,-0.006385351,-0.005321126,-0.0031926755,185.40001,18.300001,-14.400001,43.39412,225.51225,0.0,1,0,0,3.152285,3.0116732,false,0.0
16648,-0.005859375,-0.020507812,-1.0380859,-0.006385351,-0.005321126,-0.0031926755,185.40001,18.300001,-14.400001,43.39412,225.51225,0.0,1,0,0,3.152285,3.0116732,false,0.0
16648,-0.005859375,-0.020507812,-1.0380859,-0.006385351,-0.005321126,-0.0031926755,185.40001,18.300001,-14.400001,43.39412,225.51225,0.0,1,0,0,3.152285,3.0116732,false,0.0
16648,-0.005859375,-0.020507812,-1.0380859,-0.006385351,-0.005321126,-0.0031926755,185.40001,18.300001,-14.400001,43.39412,225.51225,0.0,1,0,0,3.152285,3.0116732,false,0.0
16648,-0.005859375,-0.020507812,-1.0380859,-0.006385351,-0.005321126,-0.0031926755,185.40001,18.300001,-14.400001,43.39412,225.51225,0.0,1,0,0,3.152285,3.0116732,false,0.0
16648,-0.005859375,-0.020507812,-1.0380859,-0.006385351,-0.005321126,-0.0031926755,185.40001,18.300001,-14.400001,43.39412,225.51225,0.0,1,0,0,3.152285,3.0116732,false,0.0
16648,-0.005859375,-0.020507812,-1.0380859,-0.006385351,-0.005321126,-0.0031926755,185.40001,18.300001,-14.400001,43.39412,225.51225,0.0,1,0,0,3.152285,3.0116732,false,0.0
16648,-0.005859375,-0.020507812,-1.0380859,-0.006385351,-0.005321126,-0.0031926755,185.40001,18.300001,-14.400001,43.39412,225.51225,0.0,1,0,0,3.152285,3.0116732,false,0.0
16648,-0.005859375,-0.020507812,-1.0380859,-0.006385351,-0.005321126,-0.0031926755,185.40001,18.300001,-14.400001,43.39412,225.51225,0.0,1,0,0,3.152285,3.0116732,false,0.0
16648,-0.005859375,-0.020507812,-1.0380859,-0.006385351,-0.005321126,-0.0031926755,185.40001,18.300001,-14.400001,43.39412,225.51225,0.0,1,0,0,3.152285,3.0116732,false,0.0
16648,-0.005859375,-0.020507812,-1.0380859,-0.006385351,-0.005321126,-0.0031926755,185.40001,18.300001,-14.400001,43.39412,225.51225,0.0,1,0,0,3.152285,3.0116732,false,0.0
16648,-0.005859375,-0.020507812,-1.0380859,-0.006385351,-0.005321126,-0.0031926755,185.40001,18.300001,-14.400001,43.39412,225.51225,0.0,1,0,0,3.152285,3.0116732,false,0.0
16649,-0.005859375,-0.020507812,-1.0380859,-0.006385351,-0.005321126,-0.0031926755,185.40001,18.300001,-14.400001,43.39412,225.51225,0.0,1,0,0,3.152285,3.0116732,false,0.0
16649,-0.005859375,-0.020507812,-1.0380859,-0.006385351,-0.005321126,-0.0031926755,185.40001,18.300001,-14.400001,43.39412,225.51225,0.0,1,0,0,3.152285,3.0116732,false,0.0
16649,-0.005859375,-0.020507812,-1.0380859,-0.006385351,-0.005321126,-0.0031926755,185.40001,18.300001,-14.400001,43.39412,225.51225,0.0,1,0,0,3.152285,3.0116732,false,0.0
16649,-0.005859375,-0.020507812,-1.0380859,-0.006385351,-0.005321126,-0.0031926755,185.40001,18.300001,-14.400001,43.39412,225.51225,0.0,1,0,0,3.152285,3.0116732,false,0.0
16649,-0.005859375,-0.020507812,-1.0380859,-0.006385351,-0.005321126,-0.0031926755,185.40001,18.300001,-14.400001,43.39412,225.51225,0.0,1,0,0,3.152285,3.0116732,false,0.0
16649,-0.005859375,-0.020507812,-1.0380859,-0.006385351,-0.005321126,-0.0031926755,185.40001,18.300001,-14.400001,43.39412,225.51225,0.0,1,0,0,3.152285,3.0116732,false,0.0
16649,-0.005859375,-0.020507812,-1.0380859,-0.006385351,-0.005321126,-0.0031926755,185.40001,18.300001,-14.400001,43.39412,225.51225,0.0,1,0,0,3.152285,3.0116732,false,0.0
16649,-0.005859375,-0.020507812,-1.0380859,-0.006385351,-0.005321126,-0.0031926755,185.40001,18.300001,-14.400001,43.39412,225.51225,0.0,1,0,0,3.152285,3.0116732,false,0.0
16649,-0.005859375,-0.020507812,-1.0380859,-0.006385351,-0.005321126,-0.0031926755,185.40001,18.300001,-14.400001,43.39412,225.51225,0.0,1,0,0,3.152285,3.0116732,false,0.0
16649,-0.005859375,-0.020507812,-1.0380859,-0.006385351,-0.005321126,-0.0031926755,185.40001,18.300001,-14.400001,43.39412,225.51225,0.0,1,0,0,3.152285,3.0116732,false,0.0
16649,-0.009277344,-0.017089844,-1.0361328,-0.004256901,-0.005321126,-0.004256901,186.90001,18.900002,-15.6,43.37941,225.51225,0.0,1,0,0,3.152285,3.0057983,false,0.0
16706,-0.009277344,-0.017089844,-1.0361328,-0.004256901,-0.005321126,-0.004256901,186.90001,18.900002,-15.6,43.37941,225.51225,0.0,1,0,0,3.152285,3.0057983,false,0.0
16706,-0.009277344,-0.017089844,-1.0361328,-0.004256901,-0.005321126,-0.004256901,186.90001,18.900002,-15.6,43.37941,225.51225,0.0,1,0,0,3.152285,3.0057983,false,0.0
16706,-0.009277344,-0.017089844,-1.0361328,-0.004256901,-0.005321126,-0.004256901,186.90001,18.900002,-15.6,43.37941,225.51225,0.0,1,0,0,3.152285,3.0057983,false,0.0
16706,-0.009277344,-0.017089844,-1.0361328,-0.004256901,-0.005321126,-0.004256901,186.90001,18.900002,-15.6,43.37941,225.51225,0.0,1,0,0,3.152285,3.0057983,false,0.0
16706,-0.009277344,-0.017089844,-1.0361328,-0.004256901,-0.005321126,-0.004256901,186.90001,18.900002,-15.6,43.37941,225.51225,0.0,1,0,0,3.152285,3.0057983,false,0.0
16708,-0.009277344,-0.017089844,-1.0361328,-0.004256901,-0.005321126,-0.004256901,186.90001,18.900002,-15.6,43.37941,225.51225,0.0,1,0,0,3.152285,3.0057983,false,0.0
16708,-0.009277344,-0.017089844,-1.0361328,-0.004256901,-0.005321126,-0.004256901,186.90001,18.900002,-15.6,43.37941,225.51225,0.0,1,0,0,3.152285,3.0057983,false,0.0
16708,-0.009277344,-0.017089844,-1.0361328,-0.004256901,-0.005321126,-0.004256901,186.90001,18.900002,-15.6,43.37941,225.51225,0.0,1,0,0,3.152285,3.0057983,false,0.0
16708,-0.009277344,-0.017089844,-1.0361328,-0.004256901,-0.005321126,-0.004256901,186.90001,18.900002,-15.6,43.37941,225.51225,0.0,1,0,0,3.152285,3.0057983,false,0.0
16708,-0.009277344,-0.017089844,-1.0361328,-0.004256901,-0.005321126,-0.004256901,186.90001,18.900002,-15.6,43.37941,225.51225,0.0,1,0,0,3.152285,3.0057983,false,0.0
16708,-0.009277344,-0.017089844,-1.0361328,-0.004256901,-0.005321126,-0.004256901,186.90001,18.900002,-15.6,43.37941,225.51225,0.0,1,0,0,3.152285,3.0057983,false,0.0
16708,-0.009277344,-0.017089844,-1.0361328,-0.004256901,-0.005321126,-0.004256901,186.90001,18.900002,-15.6,43.37941,225.51225,0.0,1,0,0,3.152285,3.0057983,false,0.0
16708,-0.009277344,-0.017089844,-1.0361328,-0.004256901,-0.005321126,-0.004256901,186.90001,18.900002,-15.6,43.37941,225.51225,0.0,1,0,0,3.152285,3.0057983,false,0.0
16708,-0.009277344,-0.017089844,-1.0361328,-0.004256901,-0.005321126,-0.004256901,186.90001,18.900002,-15.6,43.37941,225.51225,0.0,1,0,0,3.152285,3.0057983,false,0.0
16708,-0.009277344,-0.017089844,-1.0361328,-0.004256901,-0.005321126,-0.004256901,186.90001,18.900002,-15.6,43.37941,225.51225,0.0,1,0,0,3.152285,3.0057983,false,0.0
16708,-0.009277344,-0.017089844,-1.0361328,-0.004256901,-0.005321126,-0.004256901,186.90001,18.900002,-15.6,43.37941,225.51225,0.0,1,0,0,3.152285,3.0057983,false,0.0
16708,-0.009277344,-0.017089844,-1.0361328,-0.004256901,-0.005321126,-0.004256901,186.90001,18.900002,-15.6,43.37941,225.51225,0.0,1,0,0,3.152285,3.0057983,false,0.0
16708,-0.009277344,-0.017089844,-1.0361328,-0.004256901,-0.005321126,-0.004256901,186.90001,18.900002,-15.6,43.37941,225.51225,0.0,1,0,0,3.152285,3.0057983,false,0.0
16708,-0.009277344,-0.017089844,-1.0361328,-0.004256901,-0.005321126,-0.004256901,186.90001,18.900002,-15.6,43.37941,225.51225,0.0,1,0,0,3.152285,3.0057983,false,0.0
16708,-0.009277344,-0.017089844,-1.0361328,-0.004256901,-0.005321126,-0.004256901,186.90001,18.900002,-15.6,43.37941,225.51225,0.0,1,0,0,3.152285,3.0057983,false,0.0
16708,-0.009277344,-0.017089844,-1.0361328,-0.004256901,-0.005321126,-0.004256901,186.90001,18.900002,-15.6,43.37941,225.51225,0.0,1,0,0,3.152285,3.0057983,false,0.0
16708,-0.009277344,-0.017089844,-1.0361328,-0.004256901,-0.005321126,-0.004256901,186.90001,18.900002,-15.6,43.37941,225.51225,0.0,1,0,0,3.152285,3.0057983,false,0.0
16708,-0.009277344,-0.017089844,-1.0361328,-0.004256901,-0.005321126,-0.004256901,186.90001,18.900002,-15.6,43.37941,225.51225,0.0,1,0,0,3.152285,3.0057983,false,0.0
16708,-0.009277344,-0.017089844,-1.0361328,-0.004256901,-0.005321126,-0.004256901,186.90001,18.900002,-15.6,43.37941,225.51225,0.0,1,0,0,3.152285,3.0057983,false,0.0
16708,-0.009277344,-0.017089844,-1.0361328,-0.004256901,-0.005321126,-0.004256901,186.90001,18.900002,-15.6,43.37941,225.51225,0.0,1,0,0,3.152285,3.0057983,false,0.0
16708,-0.009277344,-0.017089844,-1.0361328,-0.004256901,-0.005321126,-0.004256901,186.90001,18.900002,-15.6,43.37941,225.51225,0.0,1,0,0,3.152285,3.0057983,false,0.0
16708,-0.009277344,-0.017089844,-1.0361328,-0.004256901,-0.005321126,-0.004256901,186.90001,18.900002,-15.6,43.37941,225.51225,0.0,1,0,0,3.152285,3.0057983,false,0.0
16708,-0.009277344,-0.017089844,-1.0361328,-0.004256901,-0.005321126,-0.004256901,186.90001,18.900002,-15.6,43.37941,225.51225,0.0,1,0,0,3.152285,3.0057983,false,0.0
16709,-0.009277344,-0.017089844,-1.0361328,-0.004256901,-0.005321126,-0.004256901,186.90001,18.900002,-15.6,43.37941,225.51225,0.0,1,0,0,3.152285,3.0057983,false,0.0
16709,-0.009277344,-0.017089844,-1.0361328,-0.004256901,-0.005321126,-0.004256901,186.90001,18.900002,-15.6,43.37941,225.51225,0.0,1,0,0,3.152285,3.0057983,false,0.0
16709,-0.009277344,-0.017089844,-1.0361328,-0.004256901,-0.005321126,-0.004256901,186.90001,18.900002,-15.6,43.37941,225.51225,0.0,1,0,0,3.152285,3.0057983,false,0.0
16709,-0.009277344,-0.017089844,-1.0361328,-0.004256901,-0.005321126,-0.004256901,186.90001,18.900002,-15.6,43.37941,225.51225,0.0,1,0,0,3.152285,3.0057983,false,0.0
16709,-0.009277344,-0.017089844,-1.0361328,-0.004256901,-0.005321126,-0.004256901,186.90001,18.900002,-15.6,43.37941,225.51225,0.0,1,0,0,3.152285,3.0057983,false,0.0
16709,-0.009277344,-0.017089844,-1.0361328,-0.004256901,-0.005321126,-0.004256901,186.90001,18.900002,-15.6,43.37941,225.51225,0.0,1,0,0,3.152285,3.0057983,false,0.0
16709,-0.009277344,-0.017089844,-1.0361328,-0.004256901,-0.005321126,-0.004256901,186.90001,18.900002,-15.6,43.37941,225.51225,0.0,1,0,0,3.152285,3.0057983,false,0.0
16709,-0.009277344,-0.017089844,-1.0361328,-0.004256901,-0.005321126,-0.004256901,186.90001,18.900002,-15.6,43.37941,225.51225,0.0,1,0,0,3.152285,3.0057983,false,0.0
16709,-0.009277344,-0.017089844,-1.0361328,-0.004256901,-0.005321126,-0.004256901,186.90001,18.900002,-15.6,43.37941,225.51225,0.0,1,0,0,3.152285,3.0057983,false,0.0
16709,-0.009277344,-0.017089844,-1.0361328,-0.004256901,-0.005321126,-0.004256901,186.90001,18.900002,-15.6,43.37941,225.51225,0.0,1,0,0,3.152285,3.0057983,false,0.0
16709,-0.009277344,-0.017089844,-1.0361328,-0.004256901,-0.005321126,-0.004256901,186.90001,18.900002,-15.6,43.37941,225.51225,0.0,1,0,0,3.152285,3.0057983,false,0.0
16709,-0.009277344,-0.017089844,-1.0361328,-0.004256901,-0.005321126,-0.004256901,186.90001,18.900002,-15.6,43.37941,225.51225,0.0,1,0,0,3.152285,3.0057983,false,0.0
16709,-0.009277344,-0.017089844,-1.0361328,-0.004256901,-0.005321126,-0.004256901,186.90001,18.900002,-15.6,43.37941,225.51225,0.0,1,0,0,3.152285,3.0057983,false,0.0
16709,-0.009277344,-0.017089844,-1.0361328,-0.004256901,-0.005321126,-0.004256901,186.90001,18.900002,-15.6,43.37941,225.51225,0.0,1,0,0,3.152285,3.0057983,false,0.0
16709,-0.009277344,-0.016601562,-1.0322266,-0.004256901,-0.005321126,-0.0031926755,186.90001,18.300001,-14.400001,43.438236,225.51225,0.0,1,0,0,3.152285,3.0116732,false,0.0
16760,-0.009277344,-0.016601562,-1.0322266,-0.004256901,-0.005321126,-0.0031926755,186.90001,18.300001,-14.400001,43.438236,225.51225,0.0,1,0,0,3.152285,3.0116732,false,0.0
16760,-0.009277344,-0.016601562,-1.0322266,-0.004256901,-0.005321126,-0.0031926755,186.90001,18.300001,-14.400001,43.438236,225.51225,0.0,1,0,0,3.152285,3.0116732,false,0.0
16760,-0.009277344,-0.016601562,-1.0322266,-0.004256901,-0.005321126,-0.0031926755,186.90001,18.300001,-14.400001,43.438236,225.51225,0.0,1,0,0,3.152285,3.0116732,false,0.0
16760,-0.009277344,-0.016601562,-1.0322266,-0.004256901,-0.005321126,-0.0031926755,186.90001,18.300001,-14.400001,43.438236,225.51225,0.0,1,0,0,3.152285,3.0116732,false,0.0
16760,-0.009277344,-0.016601562,-1.0322266,-0.004256901,-0.005321126,-0.0031926755,186.90001,18.300001,-14.400001,43.438236,225.51225,0.0,1,0,0,3.152285,3.0116732,false,0.0
16760,-0.009277344,-0.016601562,-1.0322266,-0.004256901,-0.005321126,-0.0031926755,186.90001,18.300001,-14.400001,43.438236,225.51225,0.0,1,0,0,3.152285,3.0116732,false,0.0
16760,-0.009277344,-0.016601562,-1.0322266,-0.004256901,-0.005321126,-0.0031926755,186.90001,18.300001,-14.400001,43.438236,225.51225,0.0,1,0,0,3.152285,3.0116732,false,0.0
16760,-0.009277344,-0.016601562,-1.0322266,-0.004256901,-0.005321126,-0.0031926755,186.90001,18.300001,-14.400001,43.438236,225.51225,0.0,1,0,0,3.152285,3.0116732,false,0.0
16760,-0.009277344,-0.016601562,-1.0322266,-0.004256901,-0.005321126,-0.0031926755,186.90001,18.300001,-14.400001,43.438236,225.51225,0.0,1,0,0,3.152285,3.0116732,false,0.0
16760,-0.009277344,-0.016601562,-1.0322266,-0.004256901,-0.005321126,-0.0031926755,186.90001,18.300001,-14.400001,43.438236,225.51225,0.0,1,0,0,3.152285,3.0116732,false,0.0
16760,-0.009277344,-0.016601562,-1.0322266,-0.004256901,-0.005321126,-0.0031926755,186.90001,18.300001,-14.400001,43.438236,225.51225,0.0,1,0,0,3.152285,3.0116732,false,0.0
16760,-0.009277344,-0.016601562,-1.0322266,-0.004256901,-0.005321126,-0.0031926755,186.90001,18.300001,-14.400001,43.438236,225.51225,0.0,1,0,0,3.152285,3.0116732,false,0.0
16760,-0.009277344,-0.016601562,-1.0322266,-0.004256901,-0.005321126,-0.0031926755,186.90001,18.300001,-14.400001,43.438236,225.51225,0.0,1,0,0,3.152285,3.0116732,false,0.0
16760,-0.009277344,-0.016601562,-1.0322266,-0.004256901,-0.005321126,-0.0031926755,186.90001,18.300001,-14.400001,43.438236,225.51225,0.0,1,0,0,3.152285,3.0116732,false,0.0
16760,-0.009277344,-0.016601562,-1.0322266,-0.004256901,-0.005321126,-0.0031926755,186.90001,18.300001,-14.400001,43.438236,225.51225,0.0,1,0,0,3.152285,3.0116732,false,0.0
16760,-0.009277344,-0.016601562,-1.0322266,-0.004256901,-0.005321126,-0.0031926755,186.90001,18.300001,-14.400001,43.438236,225.51225,0.0,1,0,0,3.152285,3.0116732,false,0.0
16760,-0.009277344,-0.016601562,-1.0322266,-0.004256901,-0.005321126,-0.0031926755,186.90001,18.300001,-14.400001,43.438236,225.51225,0.0,1,0,0,3.152285,3.0116732,false,0.0
16760,-0.009277344,-0.016601562,-1.0322266,-0.004256901,-0.005321126,-0.0031926755,186.90001,18.300001,-14.400001,43.438236,225.51225,0.0,1,0,0,3.152285,3.0116732,false,0.0
16760,-0.009277344,-0.016601562,-1.0322266,-0.004256901,-0.005321126,-0.0031926755,186.90001,18.300001,-14.400001,43.438236,225.51225,0.0,1,0,0,3.152285,3.0116732,false,0.0
16760,-0.009277344,-0.016601562,-1.0322266,-0.004256901,-0.005321126,-0.0031926755,186.90001,18.300001,-14.400001,43.438236,225.51225,0.0,1,0,0,3.152285,3.0116732,false,0.0
16760,-0.009277344,-0.016601562,-1.0322266,-0.004256901,-0.005321126,-0.0031926755,186.90001,18.300001,-14.400001,43.438236,225.51225,0.0,1,0,0,3.152285,3.0116732,false,0.0
16760,-0.009277344,-0.016601562,-1.0322266,-0.004256901,-0.005321126,-0.0031926755,186.90001,18.300001,-14.400001,43.438236,225.51225,0.0,1,0,0,3.152285,3.0116732,false,0.0
16760,-0.009277344,-0.016601562,-1.0322266,-0.004256901,-0.005321126,-0.0031926755,186.90001,18.300001,-14.400001,43.438236,225.51225,0.0,1,0,0,3.152285,3.0116732,false,0.0
16760,-0.009277344,-0.016601562,-1.0322266,-0.004256901,-0.005321126,-0.0031926755,186.90001,18.300001,-14.400001,43.438236,225.51225,0.0,1,0,0,3.152285,3.0116732,false,0.0
16760,-0.009277344,-0.016601562,-1.0322266,-0.004256901,-0.005321126,-0.0031926755,186.90001,18.300001,-14.400001,43.438236,225.51225,0.0,1,0,0,3.152285,3.0116732,false,0.0
16760,-0.009277344,-0.016601562,-1.0322266,-0.004256901,-0.005321126,-0.0031926755,186.90001,18.300001,-14.400001,43.438236,225.51225,0.0,1,0,0,3.152285,3.0116732,false,0.0
16760,-0.009277344,-0.016601562,-1.0322266,-0.004256901,-0.005321126,-0.0031926755,186.90001,18.300001,-14.400001,43.438236,225.51225,0.0,1,0,0,3.152285,3.0116732,false,0.0
16760,-0.009277344,-0.016601562,-1.0322266,-0.004256901,-0.005321126,-0.0031926755,186.90001,18.300001,-14.400001,43.438236,225.51225,0.0,1,0,0,3.152285,3.0116732,false,0.0
16760,-0.009277344,-0.016601562,-1.0322266,-0.004256901,-0.005321126,-0.0031926755,186.90001,18.300001,-14.400001,43.438236,225.51225,0.0,1,0,0,3.152285,3.0116732,false,0.0
16760,-0.009277344,-0.016601562,-1.0322266,-0.004256901,-0.005321126,-0.0031926755,186.90001,18.300001,-14.400001,43.438236,225.51225,0.0,1,0,0,3.152285,3.0116732,false,0.0
16760,-0.009277344,-0.016601562,-1.0322266,-0.004256901,-0.005321126,-0.0031926755,186.90001,18.300001,-14.400001,43.438236,225.51225,0.0,1,0,0,3.152285,3.0116732,false,0.0
16760,-0.009277344,-0.016601562,-1.0322266,-0.004256901,-0.005321126,-0.0031926755,186.90001,18.300001,-14.400001,43.438236,225.51225,0.0,1,0,0,3.152285,3.0116732,false,0.0
16760,-0.009277344,-0.016601562,-1.0322266,-0.004256901,-0.005321126,-0.0031926755,186.90001,18.300001,-14.400001,43.438236,225.51225,0.0,1,0,0,3.152285,3.0116732,false,0.0
16760,-0.009277344,-0.016601562,-1.0322266,-0.004256901,-0.005321126,-0.0031926755,186.90001,18.300001,-14.400001,43.438236,225.51225,0.0,1,0,0,3.152285,3.0116732,false,0.0
16760,-0.009277344,-0.016601562,-1.0322266,-0.004256901,-0.005321126,-0.0031926755,186.90001,18.300001,-14.400001,43.438236,225.51225,0.0,1,0,0,3.152285,3.0116732,false,0.0
16760,-0.009277344,-0.016601562,-1.0322266,-0.004256901,-0.005321126,-0.0031926755,186.90001,18.300001,-14.400001,43.438236,225.51225,0.0,1,0,0,3.152285,3.0116732,false,0.0
16760,-0.009277344,-0.016601562,-1.0322266,-0.004256901,-0.005321126,-0.0031926755,186.90001,18.300001,-14.400001,43.438236,225.51225,0.0,1,0,0,3.152285,3.0116732,false,0.0
16760,-0.009277344,-0.016601562,-1.0322266,-0.004256901,-0.005321126,-0.0031926755,186.90001,18.300001,-14.400001,43.438236,225.51225,0.0,1,0,0,3.152285,3.0116732,false,0.0
16760,-0.009277344,-0.016601562,-1.0322266,-0.004256901,-0.005321126,-0.0031926755,186.90001,18.300001,-14.400001,43.438236,225.51225,0.0,1,0,0,3.152285,3.0116732,false,0.0
16760,-0.009277344,-0.016601562,-1.0322266,-0.004256901,-0.005321126,-0.0031926755,186.90001,18.300001,-14.400001,43.438236,225.51225,0.0,1,0,0,3.152285,3.0116732,false,0.0
16760,-0.009277344,-0.016601562,-1.0322266,-0.004256901,-0.005321126,-0.0031926755,186.90001,18.300001,-14.400001,43.438236,225.51225,0.0,1,0,0,3.152285,3.0116732,false,0.0
16760,-0.009277344,-0.016601562,-1.0322266,-0.004256901,-0.005321126,-0.0031926755,186.90001,18.300001,-14.400001,43.438236,225.51225,0.0,1,0,0,3.152285,3.0116732,false,0.0
16764,-0.010253906,-0.018066406,-1.0380859,-0.006385351,-0.006385351,-0.0021284504,184.5,20.7,-14.700001,43.44412,225.51225,0.0,1,0,0,3.140612,3.0175478,false,0.0
16796,-0.010253906,-0.018066406,-1.0380859,-0.006385351,-0.006385351,-0.0021284504,184.5,20.7,-14.700001,43.44412,225.51225,0.0,1,0,0,3.140612,3.0175478,false,0.0
16796,-0.010253906,-0.018066406,-1.0380859,-0.006385351,-0.006385351,-0.0021284504,184.5,20.7,-14.700001,43.44412,225.51225,0.0,1,0,0,3.140612,3.0175478,false,0.0
16796,-0.010253906,-0.018066406,-1.0380859,-0.006385351,-0.006385351,-0.0021284504,184.5,20.7,-14.700001,43.44412,225.51225,0.0,1,0,0,3.140612,3.0175478,false,0.0
16796,-0.010253906,-0.018066406,-1.0380859,-0.006385351,-0.006385351,-0.0021284504,184.5,20.7,-14.700001,43.44412,225.51225,0.0,1,0,0,3.140612,3.0175478,false,0.0
16796,-0.010253906,-0.018066406,-1.0380859,-0.006385351,-0.006385351,-0.0021284504,184.5,20.7,-14.700001,43.44412,225.51225,0.0,1,0,0,3.140612,3.0175478,false,0.0
16796,-0.010253906,-0.018066406,-1.0380859,-0.006385351,-0.006385351,-0.0021284504,184.5,20.7,-14.700001,43.44412,225.51225,0.0,1,0,0,3.140612,3.0175478,false,0.0
16796,-0.010253906,-0.018066406,-1.0380859,-0.006385351,-0.006385351,-0.0021284504,184.5,20.7,-14.700001,43.44412,225.51225,0.0,1,0,0,3.140612,3.0175478,false,0.0
16798,-0.010253906,-0.018066406,-1.0380859,-0.006385351,-0.006385351,-0.0021284504,184.5,20.7,-14.700001,43.44412,225.51225,0.0,1,0,0,3.140612,3.0175478,false,0.0
16798,-0.010253906,-0.018066406,-1.0380859,-0.006385351,-0.006385351,-0.0021284504,184.5,20.7,-14.700001,43.44412,225.51225,0.0,1,0,0,3.140612,3.0175478,false,0.0
16798,-0.010253906,-0.018066406,-1.0380859,-0.006385351,-0.006385351,-0.0021284504,184.5,20.7,-14.700001,43.44412,225.51225,0.0,1,0,0,3.140612,3.0175478,false,0.0
16798,-0.010253906,-0.018066406,-1.0380859,-0.006385351,-0.006385351,-0.0021284504,184.5,20.7,-14.700001,43.44412,225.51225,0.0,1,0,0,3.140612,3.0175478,false,0.0
16798,-0.010253906,-0.018066406,-1.0380859,-0.006385351,-0.006385351,-0.0021284504,184.5,20.7,-14.700001,43.44412,225.51225,0.0,1,0,0,3.140612,3.0175478,false,0.0
16798,-0.010253906,-0.018066406,-1.0380859,-0.006385351,-0.006385351,-0.0021284504,184.5,20.7,-14.700001,43.44412,225.51225,0.0,1,0,0,3.140612,3.0175478,false,0.0
16798,-0.010253906,-0.018066406,-1.0380859,-0.006385351,-0.006385351,-0.0021284504,184.5,20.7,-14.700001,43.44412,225.51225,0.0,1,0,0,3.140612,3.0175478,false,0.0
16798,-0.010253906,-0.018066406,-1.0380859,-0.006385351,-0.006385351,-0.0021284504,184.5,20.7,-14.700001,43.44412,225.51225,0.0,1,0,0,3.140612,3.0175478,false,0.0
16798,-0.010253906,-0.018066406,-1.0380859,-0.006385351,-0.006385351,-0.0021284504,184.5,20.7,-14.700001,43.44412,225.51225,0.0,1,0,0,3.140612,3.0175478,false,0.0
16798,-0.010253906,-0.018066406,-1.0380859,-0.006385351,-0.006385351,-0.0021284504,184.5,20.7,-14.700001,43.44412,225.51225,0.0,1,0,0,3.140612,3.0175478,false,0.0
16798,-0.010253906,-0.018066406,-1.0380859,-0.006385351,-0.006385351,-0.0021284504,184.5,20.7,-14.700001,43.44412,225.51225,0.0,1,0,0,3.140612,3.0175478,false,0.0
16798,-0.010253906,-0.018066406,-1.0380859,-0.006385351,-0.006385351,-0.0021284504,184.5,20.7,-14.700001,43.44412,225.51225,0.0,1,0,0,3.140612,3.0175478,false,0.0
16798,-0.010253906,-0.018066406,-1.0380859,-0.006385351,-0.006385351,-0.0021284504,184.5,20.7,-14.700001,43.44412,225.51225,0.0,1,0,0,3.140612,3.0175478,false,0.0
16798,-0.010253906,-0.018066406,-1.0380859,-0.006385351,-0.006385351,-0.0021284504,184.5,20.7,-14.700001,43.44412,225.51225,0.0,1,0,0,3.140612,3.0175478,false,0.0
16798,-0.010253906,-0.018066406,-1.0380859,-0.006385351,-0.006385351,-0.0021284504,184.5,20.7,-14.700001,43.44412,225.51225,0.0,1,0,0,3.140612,3.0175478,false,0.0
16798,-0.010253906,-0.018066406,-1.0380859,-0.006385351,-0.006385351,-0.0021284504,184.5,20.7,-14.700001,43.44412,225.51225,0.0,1,0,0,3.140612,3.0175478,false,0.0
16798,-0.010253906,-0.018066406,-1.0380859,-0.006385351,-0.006385351,-0.0021284504,184.5,20.7,-14.700001,43.44412,225.51225,0.0,1,0,0,3.140612,3.0175478,false,0.0
16798,-0.010253906,-0.018066406,-1.0380859,-0.006385351,-0.006385351,-0.0021284504,184.5,20.7,-14.700001,43.44412,225.51225,0.0,1,0,0,3.140612,3.0175478,false,0.0
16798,-0.010253906,-0.018066406,-1.0380859,-0.006385351,-0.006385351,-0.0021284504,184.5,20.7,-14.700001,43.44412,225.51225,0.0,1,0,0,3.140612,3.0175478,false,0.0
16798,-0.010253906,-0.018066406,-1.0380859,-0.006385351,-0.006385351,-0.0021284504,184.5,20.7,-14.700001,43.44412,225.51225,0.0,1,0,0,3.140612,3.0175478,false,0.0
16798,-0.010253906,-0.018066406,-1.0380859,-0.006385351,-0.006385351,-0.0021284504,184.5,20.7,-14.700001,43.44412,225.51225,0.0,1,0,0,3.140612,3.0175478,false,0.0
16798,-0.010253906,-0.018066406,-1.0380859,-0.006385351,-0.006385351,-0.0021284504,184.5,20.7,-14.700001,43.44412,225.51225,0.0,1,0,0,3.140612,3.0175478,false,0.0
16798,-0.010253906,-0.018066406,-1.0380859,-0.006385351,-0.006385351,-0.0021284504,184.5,20.7,-14.700001,43.44412,225.51225,0.0,1,0,0,3.140612,3.0175478,false,0.0
16798,-0.010253906,-0.018066406,-1.0380859,-0.006385351,-0.006385351,-0.0021284504,184.5,20.7,-14.700001,43.44412,225.51225,0.0,1,0,0,3.140612,3.0175478,false,0.0
16798,-0.010253906,-0.018066406,-1.0380859,-0.006385351,-0.006385351,-0.0021284504,184.5,20.7,-14.700001,43.44412,225.51225,0.0,1,0,0,3.140612,3.0175478,false,0.0
16798,-0.010253906,-0.018066406,-1.0380859,-0.006385351,-0.006385351,-0.0021284504,184.5,20.7,-14.700001,43.44412,225.51225,0.0,1,0,0,3.140612,3.0175478,false,0.0
16798,-0.010253906,-0.018066406,-1.0380859,-0.006385351,-0.006385351,-0.0021284504,184.5,20.7,-14.700001,43.44412,225.51225,0.0,1,0,0,3.140612,3.0175478,false,0.0
16798,-0.010253906,-0.018066406,-1.0380859,-0.006385351,-0.006385351,-0.0021284504,184.5,20.7,-14.700001,43.44412,225.51225,0.0,1,0,0,3.140612,3.0175478,false,0.0
16798,-0.010253906,-0.018066406,-1.0380859,-0.006385351,-0.006385351,-0.0021284504,184.5,20.7,-14.700001,43.44412,225.51225,0.0,1,0,0,3.140612,3.0175478,false,0.0
16798,-0.010253906,-0.018066406,-1.0380859,-0.006385351,-0.006385351,-0.0021284504,184.5,20.7,-14.700001,43.44412,225.51225,0.0,1,0,0,3.140612,3.0175478,false,0.0
16798,-0.010253906,-0.018066406,-1.0380859,-0.006385351,-0.006385351,-0.0021284504,184.5,20.7,-14.700001,43.44412,225.51225,0.0,1,0,0,3.140612,3.0175478,false,0.0
16798,-0.010253906,-0.018066406,-1.0380859,-0.006385351,-0.006385351,-0.0021284504,184.5,20.7,-14.700001,43.44412,225.51225,0.0,1,0,0,3.140612,3.0175478,false,0.0
16798,-0.010253906,-0.018066406,-1.0380859,-0.006385351,-0.006385351,-0.0021284504,184.5,20.7,-14.700001,43.44412,225.51225,0.0,1,0,0,3.140612,3.0175478,false,0.0
16798,-0.010253906,-0.018066406,-1.0380859,-0.006385351,-0.006385351,-0.0021284504,184.5,20.7,-14.700001,43.44412,225.51225,0.0,1,0,0,3.140612,3.0175478,false,0.0
16798,-0.010253906,-0.018066406,-1.0380859,-0.006385351,-0.006385351,-0.0021284504,184.5,20.7,-14.700001,43.44412,225.51225,0.0,1,0,0,3.140612,3.0175478,false,0.0
16798,-0.0107421875,-0.016601562,-1.0336914,-0.005321126,-0.005321126,-0.004256901,185.1,21.6,-13.200001,43.4,225.51225,0.0,1,0,0,3.1347373,3.0,false,0.0
16856,-0.0107421875,-0.016601562,-1.0336914,-0.005321126,-0.005321126,-0.004256901,185.1,21.6,-13.200001,43.4,225.51225,0.0,1,0,0,3.1347373,3.0,false,0.0
16856,-0.0107421875,-0.016601562,-1.0336914,-0.005321126,-0.005321126,-0.004256901,185.1,21.6,-13.200001,43.4,225.51225,0.0,1,0,0,3.1347373,3.0,false,0.0
16856,-0.0107421875,-0.016601562,-1.0336914,-0.005321126,-0.005321126,-0.004256901,185.1,21.6,-13.200001,43.4,225.51225,0.0,1,0,0,3.1347373,3.0,false,0.0
16856,-0.0107421875,-0.016601562,-1.0336914,-0.005321126,-0.005321126,-0.004256901,185.1,21.6,-13.200001,43.4,225.51225,0.0,1,0,0,3.1347373,3.0,false,0.0
16856,-0.0107421875,-0.016601562,-1.0336914,-0.005321126,-0.005321126,-0.004256901,185.1,21.6,-13.200001,43.4,225.51225,0.0,1,0,0,3.1347373,3.0,false,0.0
16856,-0.0107421875,-0.016601562,-1.0336914,-0.005321126,-0.005321126,-0.004256901,185.1,21.6,-13.200001,43.4,225.51225,0.0,1,0,0,3.1347373,3.0,false,0.0
16856,-0.0107421875,-0.016601562,-1.0336914,-0.005321126,-0.005321126,-0.004256901,185.1,21.6,-13.200001,43.4,225.51225,0.0,1,0,0,3.1347373,3.0,false,0.0
16856,-0.0107421875,-0.016601562,-1.0336914,-0.005321126,-0.005321126,-0.004256901,185.1,21.6,-13.200001,43.4,225.51225,0.0,1,0,0,3.1347373,3.0,false,0.0
16856,-0.0107421875,-0.016601562,-1.0336914,-0.005321126,-0.005321126,-0.004256901,185.1,21.6,-13.200001,43.4,225.51225,0.0,1,0,0,3.1347373,3.0,false,0.0
16856,-0.0107421875,-0.016601562,-1.0336914,-0.005321126,-0.005321126,-0.004256901,185.1,21.6,-13.200001,43.4,225.51225,0.0,1,0,0,3.1347373,3.0,false,0.0
16856,-0.0107421875,-0.016601562,-1.0336914,-0.005321126,-0.005321126,-0.004256901,185.1,21.6,-13.200001,43.4,225.51225,0.0,1,0,0,3.1347373,3.0,false,0.0
16856,-0.0107421875,-0.016601562,-1.0336914,-0.005321126,-0.005321126,-0.004256901,185.1,21.6,-13.200001,43.4,225.51225,0.0,1,0,0,3.1347373,3.0,false,0.0
16856,-0.0107421875,-0.016601562,-1.0336914,-0.005321126,-0.005321126,-0.004256901,185.1,21.6,-13.200001,43.4,225.51225,0.0,1,0,0,3.1347373,3.0,false,0.0
16856,-0.0107421875,-0.016601562,-1.0336914,-0.005321126,-0.005321126,-0.004256901,185.1,21.6,-13.200001,43.4,225.51225,0.0,1,0,0,3.1347373,3.0,false,0.0
16856,-0.0107421875,-0.016601562,-1.0336914,-0.005321126,-0.005321126,-0.004256901,185.1,21.6,-13.200001,43.4,225.51225,0.0,1,0,0,3.1347373,3.0,false,0.0
16856,-0.0107421875,-0.016601562,-1.0336914,-0.005321126,-0.005321126,-0.004256901,185.1,21.6,-13.200001,43.4,225.51225,0.0,1,0,0,3.1347373,3.0,false,0.0
16856,-0.0107421875,-0.016601562,-1.0336914,-0.005321126,-0.005321126,-0.004256901,185.1,21.6,-13.200001,43.4,225.51225,0.0,1,0,0,3.1347373,3.0,false,0.0
16856,-0.0107421875,-0.016601562,-1.0336914,-0.005321126,-0.005321126,-0.004256901,185.1,21.6,-13.200001,43.4,225.51225,0.0,1,0,0,3.1347373,3.0,false,0.0
16856,-0.0107421875,-0.016601562,-1.0336914,-0.005321126,-0.005321126,-0.004256901,185.1,21.6,-13.200001,43.4,225.51225,0.0,1,0,0,3.1347373,3.0,false,0.0
16856,-0.0107421875,-0.016601562,-1.0336914,-0.005321126,-0.005321126,-0.004256901,185.1,21.6,-13.200001,43.4,225.51225,0.0,1,0,0,3.1347373,3.0,false,0.0
16856,-0.0107421875,-0.016601562,-1.0336914,-0.005321126,-0.005321126,-0.004256901,185.1,21.6,-13.200001,43.4,225.51225,0.0,1,0,0,3.1347373,3.0,false,0.0
16856,-0.0107421875,-0.016601562,-1.0336914,-0.005321126,-0.005321126,-0.004256901,185.1,21.6,-13.200001,43.4,225.51225,0.0,1,0,0,3.1347373,3.0,false,0.0
16856,-0.0107421875,-0.016601562,-1.0336914,-0.005321126,-0.005321126,-0.004256901,185.1,21.6,-13.200001,43.4,225.51225,0.0,1,0,0,3.1347373,3.0,false,0.0
16856,-0.0107421875,-0.016601562,-1.0336914,-0.005321126,-0.005321126,-0.004256901,185.1,21.6,-13.200001,43.4,225.51225,0.0,1,0,0,3.1347373,3.0,false,0.0
16856,-0.0107421875,-0.016601562,-1.0336914,-0.005321126,-0.005321126,-0.004256901,185.1,21.6,-13.200001,43.4,225.51225,0.0,1,0,0,3.1347373,3.0,false,0.0
16856,-0.0107421875,-0.016601562,-1.0336914,-0.005321126,-0.005321126,-0.004256901,185.1,21.6,-13.200001,43.4,225.51225,0.0,1,0,0,3.1347373,3.0,false,0.0
16856,-0.0107421875,-0.016601562,-1.0336914,-0.005321126,-0.005321126,-0.004256901,185.1,21.6,-13.200001,43.4,225.51225,0.0,1,0,0,3.1347373,3.0,false,0.0
16857,-0.0107421875,-0.016601562,-1.0336914,-0.005321126,-0.005321126,-0.004256901,185.1,21.6,-13.200001,43.4,225.51225,0.0,1,0,0,3.1347373,3.0,false,0.0
16857,-0.0107421875,-0.016601562,-1.0336914,-0.005321126,-0.005321126,-0.004256901,185.1,21.6,-13.200001,43.4,225.51225,0.0,1,0,0,3.1347373,3.0,false,0.0
16857,-0.0107421875,-0.016601562,-1.0336914,-0.005321126,-0.005321126,-0.004256901,185.1,21.6,-13.200001,43.4,225.51225,0.0,1,0,0,3.1347373,3.0,false,0.0
16857,-0.0107421875,-0.016601562,-1.0336914,-0.005321126,-0.005321126,-0.004256901,185.1,21.6,-13.200001,43.4,225.51225,0.0,1,0,0,3.1347373,3.0,false,0.0
16857,-0.0107421875,-0.016601562,-1.0336914,-0.005321126,-0.005321126,-0.004256901,185.1,21.6,-13.200001,43.4,225.51225,0.0,1,0,0,3.1347373,3.0,false,0.0
16857,-0.0107421875,-0.016601562,-1.0336914,-0.005321126,-0.005321126,-0.004256901,185.1,21.6,-13.200001,43.4,225.51225,0.0,1,0,0,3.1347373,3.0,false,0.0
16858,-0.0107421875,-0.016601562,-1.0336914,-0.005321126,-0.005321126,-0.004256901,185.1,21.6,-13.200001,43.4,225.51225,0.0,1,0,0,3.1347373,3.0,false,0.0
16858,-0.0107421875,-0.016601562,-1.0336914,-0.005321126,-0.005321126,-0.004256901,185.1,21.6,-13.200001,43.4,225.51225,0.0,1,0,0,3.1347373,3.0,false,0.0
16858,-0.0107421875,-0.016601562,-1.0336914,-0.005321126,-0.005321126,-0.004256901,185.1,21.6,-13.200001,43.4,225.51225,0.0,1,0,0,3.1347373,3.0,false,0.0
16858,-0.0107421875,-0.016601562,-1.0336914,-0.005321126,-0.005321126,-0.004256901,185.1,21.6,-13.200001,43.4,225.51225,0.0,1,0,0,3.1347373,3.0,false,0.0
16858,-0.0107421875,-0.016601562,-1.0336914,-0.005321126,-0.005321126,-0.004256901,185.1,21.6,-13.200001,43.4,225.51225,0.0,1,0,0,3.1347373,3.0,false,0.0
16858,-0.0107421875,-0.016601562,-1.0336914,-0.005321126,-0.005321126,-0.004256901,185.1,21.6,-13.200001,43.4,225.51225,0.0,1,0,0,3.1347373,3.0,false,0.0
16858,-0.0107421875,-0.016601562,-1.0336914,-0.005321126,-0.005321126,-0.004256901,185.1,21.6,-13.200001,43.4,225.51225,0.0,1,0,0,3.1347373,3.0,false,0.0
16858,-0.0107421875,-0.016601562,-1.0336914,-0.005321126,-0.005321126,-0.004256901,185.1,21.6,-13.200001,43.4,225.51225,0.0,1,0,0,3.1347373,3.0,false,0.0
16858,-0.0107421875,-0.016601562,-1.0336914,-0.005321126,-0.005321126,-0.004256901,185.1,21.6,-13.200001,43.4,225.51225,0.0,1,0,0,3.1347373,3.0,false,0.0
16858,-0.0063476562,-0.020019531,-1.0341797,-0.0031926755,-0.0031926755,-0.0031926755,184.8,20.400002,-15.000001,43.408825,225.51225,0.0,1,0,0,3.152285,3.0116732,false,0.0
16900,-0.0063476562,-0.020019531,-1.0341797,-0.0031926755,-0.0031926755,-0.0031926755,184.8,20.400002,-15.000001,43.408825,225.51225,0.0,1,0,0,3.152285,3.0116732,false,0.0
16900,-0.0063476562,-0.020019531,-1.0341797,-0.0031926755,-0.0031926755,-0.0031926755,184.8,20.400002,-15.000001,43.408825,225.51225,0.0,1,0,0,3.152285,3.0116732,false,0.0
16900,-0.0063476562,-0.020019531,-1.0341797,-0.0031926755,-0.0031926755,-0.0031926755,184.8,20.400002,-15.000001,43.408825,225.51225,0.0,1,0,0,3.152285,3.0116732,false,0.0
16900,-0.0063476562,-0.020019531,-1.0341797,-0.0031926755,-0.0031926755,-0.0031926755,184.8,20.400002,-15.000001,43.408825,225.51225,0.0,1,0,0,3.152285,3.0116732,false,0.0
16900,-0.0063476562,-0.020019531,-1.0341797,-0.0031926755,-0.0031926755,-0.0031926755,184.8,20.400002,-15.000001,43.408825,225.51225,0.0,1,0,0,3.152285,3.0116732,false,0.0
16900,-0.0063476562,-0.020019531,-1.0341797,-0.0031926755,-0.0031926755,-0.0031926755,184.8,20.400002,-15.000001,43.408825,225.51225,0.0,1,0,0,3.152285,3.0116732,false,0.0
16900,-0.0063476562,-0.020019531,-1.0341797,-0.0031926755,-0.0031926755,-0.0031926755,184.8,20.400002,-15.000001,43.408825,225.51225,0.0,1,0,0,3.152285,3.0116732,false,0.0
16900,-0.0063476562,-0.020019531,-1.0341797,-0.0031926755,-0.0031926755,-0.0031926755,184.8,20.400002,-15.000001,43.408825,225.51225,0.0,1,0,0,3.152285,3.0116732,false,0.0
16900,-0.0063476562,-0.020019531,-1.0341797,-0.0031926755,-0.0031926755,-0.0031926755,184.8,20.400002,-15.000001,43.408825,225.51225,0.0,1,0,0,3.152285,3.0116732,false,0.0
16900,-0.0063476562,-0.020019531,-1.0341797,-0.0031926755,-0.0031926755,-0.0031926755,184.8,20.400002,-15.000001,43.408825,225.51225,0.0,1,0,0,3.152285,3.0116732,false,0.0
16900,-0.0063476562,-0.020019531,-1.0341797,-0.0031926755,-0.0031926755,-0.0031926755,184.8,20.400002,-15.000001,43.408825,225.51225,0.0,1,0,0,3.152285,3.0116732,false,0.0
16900,-0.0063476562,-0.020019531,-1.0341797,-0.0031926755,-0.0031926755,-0.0031926755,184.8,20.400002,-15.000001,43.408825,225.51225,0.0,1,0,0,3.152285,3.0116732,false,0.0
16900,-0.0063476562,-0.020019531,-1.0341797,-0.0031926755,-0.0031926755,-0.0031926755,184.8,20.400002,-15.000001,43.408825,225.51225,0.0,1,0,0,3.152285,3.0116732,false,0.0
16900,-0.0063476562,-0.020019531,-1.0341797,-0.0031926755,-0.0031926755,-0.0031926755,184.8,20.400002,-15.000001,43.408825,225.51225,0.0,1,0,0,3.152285,3.0116732,false,0.0
16900,-0.0063476562,-0.020019531,-1.0341797,-0.0031926755,-0.0031926755,-0.0031926755,184.8,20.400002,-15.000001,43.408825,225.51225,0.0,1,0,0,3.152285,3.0116732,false,0.0
16903,-0.0063476562,-0.020019531,-1.0341797,-0.0031926755,-0.0031926755,-0.0031926755,184.8,20.400002,-15.000001,43.408825,225.51225,0.0,1,0,0,3.152285,3.0116732,false,0.0
16903,-0.0063476562,-0.020019531,-1.0341797,-0.0031926755,-0.0031926755,-0.0031926755,184.8,20.400002,-15.000001,43.408825,225.51225,0.0,1,0,0,3.152285,3.0116732,false,0.0
16903,-0.0063476562,-0.020019531,-1.0341797,-0.0031926755,-0.0031926755,-0.0031926755,184.8,20.400002,-15.000001,43.408825,225.51225,0.0,1,0,0,3.152285,3.0116732,false,0.0
16903,-0.0063476562,-0.020019531,-1.0341797,-0.0031926755,-0.0031926755,-0.0031926755,184.8,20.400002,-15.000001,43.408825,225.51225,0.0,1,0,0,3.152285,3.0116732,false,0.0
16903,-0.0063476562,-0.020019531,-1.0341797,-0.0031926755,-0.0031926755,-0.0031926755,184.8,20.400002,-15.000001,43.408825,225.51225,0.0,1,0,0,3.152285,3.0116732,false,0.0
16903,-0.0063476562,-0.020019531,-1.0341797,-0.0031926755,-0.0031926755,-0.0031926755,184.8,20.400002,-15.000001,43.408825,225.51225,0.0,1,0,0,3.152285,3.0116732,false,0.0
16903,-0.0063476562,-0.020019531,-1.0341797,-0.0031926755,-0.0031926755,-0.0031926755,184.8,20.400002,-15.000001,43.408825,225.51225,0.0,1,0,0,3.152285,3.0116732,false,0.0
16903,-0.0063476562,-0.020019531,-1.0341797,-0.0031926755,-0.0031926755,-0.0031926755,184.8,20.400002,-15.000001,43.408825,225.51225,0.0,1,0,0,3.152285,3.0116732,false,0.0
16903,-0.0063476562,-0.020019531,-1.0341797,-0.0031926755,-0.0031926755,-0.0031926755,184.8,20.400002,-15.000001,43.408825,225.51225,0.0,1,0,0,3.152285,3.0116732,false,0.0
16903,-0.0063476562,-0.020019531,-1.0341797,-0.0031926755,-0.0031926755,-0.0031926755,184.8,20.400002,-15.000001,43.408825,225.51225,0.0,1,0,0,3.152285,3.0116732,false,0.0
16903,-0.0063476562,-0.020019531,-1.0341797,-0.0031926755,-0.0031926755,-0.0031926755,184.8,20.400002,-15.000001,43.408825,225.51225,0.0,1,0,0,3.152285,3.0116732,false,0.0
16903,-0.0063476562,-0.020019531,-1.0341797,-0.0031926755,-0.0031926755,-0.0031926755,184.8,20.400002,-15.000001,43.408825,225.51225,0.0,1,0,0,3.152285,3.0116732,false,0.0
16903,-0.0063476562,-0.020019531,-1.0341797,-0.0031926755,-0.0031926755,-0.0031926755,184.8,20.400002,-15.000001,43.408825,225.51225,0.0,1,0,0,3.152285,3.0116732,false,0.0
16903,-0.0063476562,-0.020019531,-1.0341797,-0.0031926755,-0.0031926755,-0.0031926755,184.8,20.400002,-15.000001,43.408825,225.51225,0.0,1,0,0,3.152285,3.0116732,false,0.0
16903,-0.0063476562,-0.020019531,-1.0341797,-0.0031926755,-0.0031926755,-0.0031926755,184.8,20.400002,-15.000001,43.408825,225.51225,0.0,1,0,0,3.152285,3.0116732,false,0.0
16903,-0.0063476562,-0.020019531,-1.0341797,-0.0031926755,-0.0031926755,-0.0031926755,184.8,20.400002,-15.000001,43.408825,225.51225,0.0,1,0,0,3.152285,3.0116732,false,0.0
16903,-0.0063476562,-0.020019531,-1.0341797,-0.0031926755,-0.0031926755,-0.0031926755,184.8,20.400002,-15.000001,43.408825,225.51225,0.0,1,0,0,3.152285,3.0116732,false,0.0
16903,-0.0063476562,-0.020019531,-1.0341797,-0.0031926755,-0.0031926755,-0.0031926755,184.8,20.400002,-15.000001,43.408825,225.51225,0.0,1,0,0,3.152285,3.0116732,false,0.0
16903,-0.0063476562,-0.020019531,-1.0341797,-0.0031926755,-0.0031926755,-0.0031926755,184.8,20.400002,-15.000001,43.408825,225.51225,0.0,1,0,0,3.152285,3.0116732,false,0.0
16903,-0.0063476562,-0.020019531,-1.0341797,-0.0031926755,-0.0031926755,-0.0031926755,184.8,20.400002,-15.000001,43.408825,225.51225,0.0,1,0,0,3.152285,3.0116732,false,0.0
16903,-0.0063476562,-0.020019531,-1.0341797,-0.0031926755,-0.0031926755,-0.0031926755,184.8,20.400002,-15.000001,43.408825,225.51225,0.0,1,0,0,3.152285,3.0116732,false,0.0
16903,-0.0063476562,-0.020019531,-1.0341797,-0.0031926755,-0.0031926755,-0.0031926755,184.8,20.400002,-15.000001,43.408825,225.51225,0.0,1,0,0,3.152285,3.0116732,false,0.0
16903,-0.0063476562,-0.020019531,-1.0341797,-0.0031926755,-0.0031926755,-0.0031926755,184.8,20.400002,-15.000001,43.408825,225.51225,0.0,1,0,0,3.152285,3.0116732,false,0.0
16903,-0.0063476562,-0.020019531,-1.0341797,-0.0031926755,-0.0031926755,-0.0031926755,184.8,20.400002,-15.000001,43.408825,225.51225,0.0,1,0,0,3.152285,3.0116732,false,0.0
16903,-0.0063476562,-0.020019531,-1.0341797,-0.0031926755,-0.0031926755,-0.0031926755,184.8,20.400002,-15.000001,43.408825,225.51225,0.0,1,0,0,3.152285,3.0116732,false,0.0
16903,-0.0063476562,-0.020019531,-1.0341797,-0.0031926755,-0.0031926755,-0.0031926755,184.8,20.400002,-15.000001,43.408825,225.51225,0.0,1,0,0,3.152285,3.0116732,false,0.0
16903,-0.0063476562,-0.020019531,-1.0341797,-0.0031926755,-0.0031926755,-0.0031926755,184.8,20.400002,-15.000001,43.408825,225.51225,0.0,1,0,0,3.152285,3.0116732,false,0.0
16903,-0.009765625,-0.018066406,-1.0322266,-0.006385351,-0.006385351,-0.0010642252,186.3,21.300001,-16.5,43.429413,225.51225,0.0,1,0,0,3.152285,3.0,false,0.0
16995,-0.009765625,-0.018066406,-1.0322266,-0.006385351,-0.006385351,-0.0010642252,186.3,21.300001,-16.5,43.429413,225.51225,0.0,1,0,0,3.152285,3.0,false,0.0
16995,-0.009765625,-0.018066406,-1.0322266,-0.006385351,-0.006385351,-0.0010642252,186.3,21.300001,-16.5,43.429413,225.51225,0.0,1,0,0,3.152285,3.0,false,0.0
16995,-0.009765625,-0.018066406,-1.0322266,-0.006385351,-0.006385351,-0.0010642252,186.3,21.300001,-16.5,43.429413,225.51225,0.0,1,0,0,3.152285,3.0,false,0.0
16996,-0.009765625,-0.018066406,-1.0322266,-0.006385351,-0.006385351,-0.0010642252,186.3,21.300001,-16.5,43.429413,225.51225,0.0,1,0,0,3.152285,3.0,false,0.0
16996,-0.009765625,-0.018066406,-1.0322266,-0.006385351,-0.006385351,-0.0010642252,186.3,21.300001,-16.5,43.429413,225.51225,0.0,1,0,0,3.152285,3.0,false,0.0
16996,-0.009765625,-0.018066406,-1.0322266,-0.006385351,-0.006385351,-0.0010642252,186.3,21.300001,-16.5,43.429413,225.51225,0.0,1,0,0,3.152285,3.0,false,0.0
16996,-0.009765625,-0.018066406,-1.0322266,-0.006385351,-0.006385351,-0.0010642252,186.3,21.300001,-16.5,43.429413,225.51225,0.0,1,0,0,3.152285,3.0,false,0.0
16996,-0.009765625,-0.018066406,-1.0322266,-0.006385351,-0.006385351,-0.0010642252,186.3,21.300001,-16.5,43.429413,225.51225,0.0,1,0,0,3.152285,3.0,false,0.0
16996,-0.009765625,-0.018066406,-1.0322266,-0.006385351,-0.006385351,-0.0010642252,186.3,21.300001,-16.5,43.429413,225.51225,0.0,1,0,0,3.152285,3.0,false,0.0
16996,-0.009765625,-0.018066406,-1.0322266,-0.006385351,-0.006385351,-0.0010642252,186.3,21.300001,-16.5,43.429413,225.51225,0.0,1,0,0,3.152285,3.0,false,0.0
16996,-0.009765625,-0.018066406,-1.0322266,-0.006385351,-0.006385351,-0.0010642252,186.3,21.300001,-16.5,43.429413,225.51225,0.0,1,0,0,3.152285,3.0,false,0.0
16996,-0.009765625,-0.018066406,-1.0322266,-0.006385351,-0.006385351,-0.0010642252,186.3,21.300001,-16.5,43.429413,225.51225,0.0,1,0,0,3.152285,3.0,false,0.0
16996,-0.009765625,-0.018066406,-1.0322266,-0.006385351,-0.006385351,-0.0010642252,186.3,21.300001,-16.5,43.429413,225.51225,0.0,1,0,0,3.152285,3.0,false,0.0
16996,-0.009765625,-0.018066406,-1.0322266,-0.006385351,-0.006385351,-0.0010642252,186.3,21.300001,-16.5,43.429413,225.51225,0.0,1,0,0,3.152285,3.0,false,0.0
16996,-0.009765625,-0.018066406,-1.0322266,-0.006385351,-0.006385351,-0.0010642252,186.3,21.300001,-16.5,43.429413,225.51225,0.0,1,0,0,3.152285,3.0,false,0.0
16996,-0.009765625,-0.018066406,-1.0322266,-0.006385351,-0.006385351,-0.0010642252,186.3,21.300001,-16.5,43.429413,225.51225,0.0,1,0,0,3.152285,3.0,false,0.0
16996,-0.009765625,-0.018066406,-1.0322266,-0.006385351,-0.006385351,-0.0010642252,186.3,21.300001,-16.5,43.429413,225.51225,0.0,1,0,0,3.152285,3.0,false,0.0
16996,-0.009765625,-0.018066406,-1.0322266,-0.006385351,-0.006385351,-0.0010642252,186.3,21.300001,-16.5,43.429413,225.51225,0.0,1,0,0,3.152285,3.0,false,0.0
16996,-0.009765625,-0.018066406,-1.0322266,-0.006385351,-0.006385351,-0.0010642252,186.3,21.300001,-16.5,43.429413,225.51225,0.0,1,0,0,3.152285,3.0,false,0.0
16996,-0.009765625,-0.018066406,-1.0322266,-0.006385351,-0.006385351,-0.0010642252,186.3,21.300001,-16.5,43.429413,225.51225,0.0,1,0,0,3.152285,3.0,false,0.0
16996,-0.009765625,-0.018066406,-1.0322266,-0.006385351,-0.006385351,-0.0010642252,186.3,21.300001,-16.5,43.429413,225.51225,0.0,1,0,0,3.152285,3.0,false,0.0
16996,-0.009765625,-0.018066406,-1.0322266,-0.006385351,-0.006385351,-0.0010642252,186.3,21.300001,-16.5,43.429413,225.51225,0.0,1,0,0,3.152285,3.0,false,0.0
16996,-0.009765625,-0.018066406,-1.0322266,-0.006385351,-0.006385351,-0.0010642252,186.3,21.300001,-16.5,43.429413,225.51225,0.0,1,0,0,3.152285,3.0,false,0.0
16996,-0.009765625,-0.018066406,-1.0322266,-0.006385351,-0.006385351,-0.0010642252,186.3,21.300001,-16.5,43.429413,225.51225,0.0,1,0,0,3.152285,3.0,false,0.0
16996,-0.009765625,-0.018066406,-1.0322266,-0.006385351,-0.006385351,-0.0010642252,186.3,21.300001,-16.5,43.429413,225.51225,0.0,1,0,0,3.152285,3.0,false,0.0
16996,-0.009765625,-0.018066406,-1.0322266,-0.006385351,-0.006385351,-0.0010642252,186.3,21.300001,-16.5,43.429413,225.51225,0.0,1,0,0,3.152285,3.0,false,0.0
16996,-0.009765625,-0.018066406,-1.0322266,-0.006385351,-0.006385351,-0.0010642252,186.3,21.300001,-16.5,43.429413,225.51225,0.0,1,0,0,3.152285,3.0,false,0.0
16996,-0.009765625,-0.018066406,-1.0322266,-0.006385351,-0.006385351,-0.0010642252,186.3,21.300001,-16.5,43.429413,225.51225,0.0,1,0,0,3.152285,3.0,false,0.0
16996,-0.009765625,-0.018066406,-1.0322266,-0.006385351,-0.006385351,-0.0010642252,186.3,21.300001,-16.5,43.429413,225.51225,0.0,1,0,0,3.152285,3.0,false,0.0
16996,-0.009765625,-0.018066406,-1.0322266,-0.006385351,-0.006385351,-0.0010642252,186.3,21.300001,-16.5,43.429413,225.51225,0.0,1,0,0,3.152285,3.0,false,0.0
16996,-0.009765625,-0.018066406,-1.0322266,-0.006385351,-0.006385351,-0.0010642252,186.3,21.300001,-16.5,43.429413,225.51225,0.0,1,0,0,3.152285,3.0,false,0.0
16996,-0.009765625,-0.018066406,-1.0322266,-0.006385351,-0.006385351,-0.0010642252,186.3,21.300001,-16.5,43.429413,225.51225,0.0,1,0,0,3.152285,3.0,false,0.0
16996,-0.009765625,-0.018066406,-1.0322266,-0.006385351,-0.006385351,-0.0010642252,186.3,21.300001,-16.5,43.429413,225.51225,0.0,1,0,0,3.152285,3.0,false,0.0
16996,-0.009765625,-0.018066406,-1.0322266,-0.006385351,-0.006385351,-0.0010642252,186.3,21.300001,-16.5,43.429413,225.51225,0.0,1,0,0,3.152285,3.0,false,0.0
16996,-0.009765625,-0.018066406,-1.0322266,-0.006385351,-0.006385351,-0.0010642252,186.3,21.300001,-16.5,43.429413,225.51225,0.0,1,0,0,3.152285,3.0,false,0.0
16996,-0.009765625,-0.018066406,-1.0322266,-0.006385351,-0.006385351,-0.0010642252,186.3,21.300001,-16.5,43.429413,225.51225,0.0,1,0,0,3.152285,3.0,false,0.0
16996,-0.009765625,-0.018066406,-1.0322266,-0.006385351,-0.006385351,-0.0010642252,186.3,21.300001,-16.5,43.429413,225.51225,0.0,1,0,0,3.152285,3.0,false,0.0
16996,-0.009765625,-0.018066406,-1.0322266,-0.006385351,-0.006385351,-0.0010642252,186.3,21.300001,-16.5,43.429413,225.51225,0.0,1,0,0,3.152285,3.0,false,0.0
16996,-0.009765625,-0.018066406,-1.0322266,-0.006385351,-0.006385351,-0.0010642252,186.3,21.300001,-16.5,43.429413,225.51225,0.0,1,0,0,3.152285,3.0,false,0.0
16996,-0.009765625,-0.018066406,-1.0322266,-0.006385351,-0.006385351,-0.0010642252,186.3,21.300001,-16.5,43.429413,225.51225,0.0,1,0,0,3.152285,3.0,false,0.0
16996,-0.009765625,-0.018066406,-1.0322266,-0.006385351,-0.006385351,-0.0010642252,186.3,21.300001,-16.5,43.429413,225.51225,0.0,1,0,0,3.152285,3.0,false,0.0
16996,-0.009765625,-0.018066406,-1.0322266,-0.006385351,-0.006385351,-0.0010642252,186.3,21.300001,-16.5,43.429413,225.51225,0.0,1,0,0,3.152285,3.0,false,0.0
16996,-0.0078125,-0.01953125,-1.0341797,-0.007449576,-0.008513802,-0.0021284504,184.5,20.1,-15.3,43.405884,225.51225,0.0,1,0,0,3.1464102,3.0116732,false,0.0
17007,-0.0078125,-0.01953125,-1.0341797,-0.007449576,-0.008513802,-0.0021284504,184.5,20.1,-15.3,43.405884,225.51225,0.0,1,0,0,3.1464102,3.0116732,false,0.0
17007,-0.0078125,-0.01953125,-1.0341797,-0.007449576,-0.008513802,-0.0021284504,184.5,20.1,-15.3,43.405884,225.51225,0.0,1,0,0,3.1464102,3.0116732,false,0.0
17007,-0.0078125,-0.01953125,-1.0341797,-0.007449576,-0.008513802,-0.0021284504,184.5,20.1,-15.3,43.405884,225.51225,0.0,1,0,0,3.1464102,3.0116732,false,0.0
17007,-0.0078125,-0.01953125,-1.0341797,-0.007449576,-0.008513802,-0.0021284504,184.5,20.1,-15.3,43.405884,225.51225,0.0,1,0,0,3.1464102,3.0116732,false,0.0
17007,-0.0078125,-0.01953125,-1.0341797,-0.007449576,-0.008513802,-0.0021284504,184.5,20.1,-15.3,43.405884,225.51225,0.0,1,0,0,3.1464102,3.0116732,false,0.0
17007,-0.0078125,-0.01953125,-1.0341797,-0.007449576,-0.008513802,-0.0021284504,184.5,20.1,-15.3,43.405884,225.51225,0.0,1,0,0,3.1464102,3.0116732,false,0.0
17007,-0.0078125,-0.01953125,-1.0341797,-0.007449576,-0.008513802,-0.0021284504,184.5,20.1,-15.3,43.405884,225.51225,0.0,1,0,0,3.1464102,3.0116732,false,0.0
17007,-0.0078125,-0.01953125,-1.0341797,-0.007449576,-0.008513802,-0.0021284504,184.5,20.1,-15.3,43.405884,225.51225,0.0,1,0,0,3.1464102,3.0116732,false,0.0
17007,-0.0078125,-0.01953125,-1.0341797,-0.007449576,-0.008513802,-0.0021284504,184.5,20.1,-15.3,43.405884,225.51225,0.0,1,0,0,3.1464102,3.0116732,false,0.0
17007,-0.0078125,-0.01953125,-1.0341797,-0.007449576,-0.008513802,-0.0021284504,184.5,20.1,-15.3,43.405884,225.51225,0.0,1,0,0,3.1464102,3.0116732,false,0.0
17007,-0.0078125,-0.01953125,-1.0341797,-0.007449576,-0.008513802,-0.0021284504,184.5,20.1,-15.3,43.405884,225.51225,0.0,1,0,0,3.1464102,3.0116732,false,0.0
17007,-0.0078125,-0.01953125,-1.0341797,-0.007449576,-0.008513802,-0.0021284504,184.5,20.1,-15.3,43.405884,225.51225,0.0,1,0,0,3.1464102,3.0116732,false,0.0
17007,-0.0078125,-0.01953125,-1.0341797,-0.007449576,-0.008513802,-0.0021284504,184.5,20.1,-15.3,43.405884,225.51225,0.0,1,0,0,3.1464102,3.0116732,false,0.0
17007,-0.0078125,-0.01953125,-1.0341797,-0.007449576,-0.008513802,-0.0021284504,184.5,20.1,-15.3,43.405884,225.51225,0.0,1,0,0,3.1464102,3.0116732,false,0.0
17007,-0.0078125,-0.01953125,-1.0341797,-0.007449576,-0.008513802,-0.0021284504,184.5,20.1,-15.3,43.405884,225.51225,0.0,1,0,0,3.1464102,3.0116732,false,0.0
17007,-0.0078125,-0.01953125,-1.0341797,-0.007449576,-0.008513802,-0.0021284504,184.5,20.1,-15.3,43.405884,225.51225,0.0,1,0,0,3.1464102,3.0116732,false,0.0
17007,-0.0078125,-0.01953125,-1.0341797,-0.007449576,-0.008513802,-0.0021284504,184.5,20.1,-15.3,43.405884,225.51225,0.0,1,0,0,3.1464102,3.0116732,false,0.0
17007,-0.0078125,-0.01953125,-1.0341797,-0.007449576,-0.008513802,-0.0021284504,184.5,20.1,-15.3,43.405884,225.51225,0.0,1,0,0,3.1464102,3.0116732,false,0.0
17007,-0.0078125,-0.01953125,-1.0341797,-0.007449576,-0.008513802,-0.0021284504,184.5,20.1,-15.3,43.405884,225.51225,0.0,1,0,0,3.1464102,3.0116732,false,0.0
17007,-0.0078125,-0.01953125,-1.0341797,-0.007449576,-0.008513802,-0.0021284504,184.5,20.1,-15.3,43.405884,225.51225,0.0,1,0,0,3.1464102,3.0116732,false,0.0
17007,-0.0078125,-0.01953125,-1.0341797,-0.007449576,-0.008513802,-0.0021284504,184.5,20.1,-15.3,43.405884,225.51225,0.0,1,0,0,3.1464102,3.0116732,false,0.0
17007,-0.0078125,-0.01953125,-1.0341797,-0.007449576,-0.008513802,-0.0021284504,184.5,20.1,-15.3,43.405884,225.51225,0.0,1,0,0,3.1464102,3.0116732,false,0.0
17007,-0.0078125,-0.01953125,-1.0341797,-0.007449576,-0.008513802,-0.0021284504,184.5,20.1,-15.3,43.405884,225.51225,0.0,1,0,0,3.1464102,3.0116732,false,0.0
17007,-0.0078125,-0.01953125,-1.0341797,-0.007449576,-0.008513802,-0.0021284504,184.5,20.1,-15.3,43.405884,225.51225,0.0,1,0,0,3.1464102,3.0116732,false,0.0
17007,-0.0078125,-0.01953125,-1.0341797,-0.007449576,-0.008513802,-0.0021284504,184.5,20.1,-15.3,43.405884,225.51225,0.0,1,0,0,3.1464102,3.0116732,false,0.0
17007,-0.0078125,-0.01953125,-1.0341797,-0.007449576,-0.008513802,-0.0021284504,184.5,20.1,-15.3,43.405884,225.51225,0.0,1,0,0,3.1464102,3.0116732,false,0.0
17008,-0.0078125,-0.01953125,-1.0341797,-0.007449576,-0.008513802,-0.0021284504,184.5,20.1,-15.3,43.405884,225.51225,0.0,1,0,0,3.1464102,3.0116732,false,0.0
17008,-0.0078125,-0.01953125,-1.0341797,-0.007449576,-0.008513802,-0.0021284504,184.5,20.1,-15.3,43.405884,225.51225,0.0,1,0,0,3.1464102,3.0116732,false,0.0
17060,-0.0078125,-0.01953125,-1.0341797,-0.007449576,-0.008513802,-0.0021284504,184.5,20.1,-15.3,43.405884,225.51225,0.0,1,0,0,3.1464102,3.0116732,false,0.0
17060,-0.0078125,-0.01953125,-1.0341797,-0.007449576,-0.008513802,-0.0021284504,184.5,20.1,-15.3,43.405884,225.51225,0.0,1,0,0,3.1464102,3.0116732,false,0.0
17060,-0.0078125,-0.01953125,-1.0341797,-0.007449576,-0.008513802,-0.0021284504,184.5,20.1,-15.3,43.405884,225.51225,0.0,1,0,0,3.1464102,3.0116732,false,0.0
17060,-0.0078125,-0.01953125,-1.0341797,-0.007449576,-0.008513802,-0.0021284504,184.5,20.1,-15.3,43.405884,225.51225,0.0,1,0,0,3.1464102,3.0116732,false,0.0
17060,-0.0078125,-0.01953125,-1.0341797,-0.007449576,-0.008513802,-0.0021284504,184.5,20.1,-15.3,43.405884,225.51225,0.0,1,0,0,3.1464102,3.0116732,false,0.0
17060,-0.0078125,-0.01953125,-1.0341797,-0.007449576,-0.008513802,-0.0021284504,184.5,20.1,-15.3,43.405884,225.51225,0.0,1,0,0,3.1464102,3.0116732,false,0.0
17060,-0.0078125,-0.01953125,-1.0341797,-0.007449576,-0.008513802,-0.0021284504,184.5,20.1,-15.3,43.405884,225.51225,0.0,1,0,0,3.1464102,3.0116732,false,0.0
17060,-0.0078125,-0.01953125,-1.0341797,-0.007449576,-0.008513802,-0.0021284504,184.5,20.1,-15.3,43.405884,225.51225,0.0,1,0,0,3.1464102,3.0116732,false,0.0
17060,-0.0078125,-0.01953125,-1.0341797,-0.007449576,-0.008513802,-0.0021284504,184.5,20.1,-15.3,43.405884,225.51225,0.0,1,0,0,3.1464102,3.0116732,false,0.0
17060,-0.0078125,-0.01953125,-1.0341797,-0.007449576,-0.008513802,-0.0021284504,184.5,20.1,-15.3,43.405884,225.51225,0.0,1,0,0,3.1464102,3.0116732,false,0.0
17061,-0.0078125,-0.01953125,-1.0341797,-0.007449576,-0.008513802,-0.0021284504,184.5,20.1,-15.3,43.405884,225.51225,0.0,1,0,0,3.1464102,3.0116732,false,0.0
17061,-0.0078125,-0.01953125,-1.0341797,-0.007449576,-0.008513802,-0.0021284504,184.5,20.1,-15.3,43.405884,225.51225,0.0,1,0,0,3.1464102,3.0116732,false,0.0
17061,-0.0078125,-0.01953125,-1.0341797,-0.007449576,-0.008513802,-0.0021284504,184.5,20.1,-15.3,43.405884,225.51225,0.0,1,0,0,3.1464102,3.0116732,false,0.0
17061,-0.0078125,-0.01953125,-1.0341797,-0.007449576,-0.008513802,-0.0021284504,184.5,20.1,-15.3,43.405884,225.51225,0.0,1,0,0,3.1464102,3.0116732,false,0.0
17061,-0.0107421875,-0.017089844,-1.0361328,-0.004256901,-0.005321126,-0.0021284504,186.6,18.6,-16.2,43.39412,225.51225,0.0,1,0,0,3.1464102,3.0175478,false,0.0
17061,-0.0107421875,-0.017089844,-1.0361328,-0.004256901,-0.005321126,-0.0021284504,186.6,18.6,-16.2,43.39412,225.51225,0.0,1,0,0,3.1464102,3.0175478,false,0.0
17061,-0.0107421875,-0.017089844,-1.0361328,-0.004256901,-0.005321126,-0.0021284504,186.6,18.6,-16.2,43.39412,225.51225,0.0,1,0,0,3.1464102,3.0175478,false,0.0
17061,-0.0107421875,-0.017089844,-1.0361328,-0.004256901,-0.005321126,-0.0021284504,186.6,18.6,-16.2,43.39412,225.51225,0.0,1,0,0,3.1464102,3.0175478,false,0.0
17061,-0.0107421875,-0.017089844,-1.0361328,-0.004256901,-0.005321126,-0.0021284504,186.6,18.6,-16.2,43.39412,225.51225,0.0,1,0,0,3.1464102,3.0175478,false,0.0
17061,-0.0107421875,-0.017089844,-1.0361328,-0.004256901,-0.005321126,-0.0021284504,186.6,18.6,-16.2,43.39412,225.51225,0.0,1,0,0,3.1464102,3.0175478,false,0.0
17061,-0.0107421875,-0.017089844,-1.0361328,-0.004256901,-0.005321126,-0.0021284504,186.6,18.6,-16.2,43.39412,225.51225,0.0,1,0,0,3.1464102,3.0175478,false,0.0
17061,-0.0107421875,-0.017089844,-1.0361328,-0.004256901,-0.005321126,-0.0021284504,186.6,18.6,-16.2,43.39412,225.51225,0.0,1,0,0,3.1464102,3.0175478,false,0.0
17061,-0.0107421875,-0.017089844,-1.0361328,-0.004256901,-0.005321126,-0.0021284504,186.6,18.6,-16.2,43.39412,225.51225,0.0,1,0,0,3.1464102,3.0175478,false,0.0
17061,-0.0107421875,-0.017089844,-1.0361328,-0.004256901,-0.005321126,-0.0021284504,186.6,18.6,-16.2,43.39412,225.51225,0.0,1,0,0,3.1464102,3.0175478,false,0.0
17061,-0.0107421875,-0.017089844,-1.0361328,-0.004256901,-0.005321126,-0.0021284504,186.6,18.6,-16.2,43.39412,225.51225,0.0,1,0,0,3.1464102,3.0175478,false,0.0
17061,-0.0107421875,-0.017089844,-1.0361328,-0.004256901,-0.005321126,-0.0021284504,186.6,18.6,-16.2,43.39412,225.51225,0.0,1,0,0,3.1464102,3.0175478,false,0.0
17061,-0.0107421875,-0.017089844,-1.0361328,-0.004256901,-0.005321126,-0.0021284504,186.6,18.6,-16.2,43.39412,225.51225,0.0,1,0,0,3.1464102,3.0175478,false,0.0
17061,-0.0107421875,-0.017089844,-1.0361328,-0.004256901,-0.005321126,-0.0021284504,186.6,18.6,-16.2,43.39412,225.51225,0.0,1,0,0,3.1464102,3.0175478,false,0.0
17061,-0.0107421875,-0.017089844,-1.0361328,-0.004256901,-0.005321126,-0.0021284504,186.6,18.6,-16.2,43.39412,225.51225,0.0,1,0,0,3.1464102,3.0175478,false,0.0
17061,-0.0107421875,-0.017089844,-1.0361328,-0.004256901,-0.005321126,-0.0021284504,186.6,18.6,-16.2,43.39412,225.51225,0.0,1,0,0,3.1464102,3.0175478,false,0.0
17061,-0.0107421875,-0.017089844,-1.0361328,-0.004256901,-0.005321126,-0.0021284504,186.6,18.6,-16.2,43.39412,225.51225,0.0,1,0,0,3.1464102,3.0175478,false,0.0
17061,-0.0107421875,-0.017089844,-1.0361328,-0.004256901,-0.005321126,-0.0021284504,186.6,18.6,-16.2,43.39412,225.51225,0.0,1,0,0,3.1464102,3.0175478,false,0.0
17061,-0.0107421875,-0.017089844,-1.0361328,-0.004256901,-0.005321126,-0.0021284504,186.6,18.6,-16.2,43.39412,225.51225,0.0,1,0,0,3.1464102,3.0175478,false,0.0
17061,-0.0107421875,-0.017089844,-1.0361328,-0.004256901,-0.005321126,-0.0021284504,186.6,18.6,-16.2,43.39412,225.51225,0.0,1,0,0,3.1464102,3.0175478,false,0.0
17063,-0.0107421875,-0.017089844,-1.0361328,-0.004256901,-0.005321126,-0.0021284504,186.6,18.6,-16.2,43.39412,225.51225,0.0,1,0,0,3.1464102,3.0175478,false,0.0
17063,-0.0107421875,-0.017089844,-1.0361328,-0.004256901,-0.005321126,-0.0021284504,186.6,18.6,-16.2,43.39412,225.51225,0.0,1,0,0,3.1464102,3.0175478,false,0.0
17063,-0.0107421875,-0.017089844,-1.0361328,-0.004256901,-0.005321126,-0.0021284504,186.6,18.6,-16.2,43.39412,225.51225,0.0,1,0,0,3.1464102,3.0175478,false,0.0
17063,-0.0107421875,-0.017089844,-1.0361328,-0.004256901,-0.005321126,-0.0021284504,186.6,18.6,-16.2,43.39412,225.51225,0.0,1,0,0,3.1464102,3.0175478,false,0.0
17063,-0.0107421875,-0.017089844,-1.0361328,-0.004256901,-0.005321126,-0.0021284504,186.6,18.6,-16.2,43.39412,225.51225,0.0,1,0,0,3.1464102,3.0175478,false,0.0
17063,-0.0107421875,-0.017089844,-1.0361328,-0.004256901,-0.005321126,-0.0021284504,186.6,18.6,-16.2,43.39412,225.51225,0.0,1,0,0,3.1464102,3.0175478,false,0.0
