timestamp_ms,accX,accY,accZ,omegaX,omegaY,omegaZ,magX,magY,magZ,temp,deg,duty,isStop,isCurve,isSlope,V_Lipo,V_Battery,isSlipping, slipMagnitude
52462,0.0,0.0,0.0,0.0,0.0,0.0,0.0,0.0,0.0,0.0,0.0,0.0,0,0,0,0.0,0.0,false,0.0
52462,0.0,0.0,0.0,0.0,0.0,0.0,0.0,0.0,0.0,0.0,0.0,0.0,0,0,0,0.0,0.0,false,0.0
52462,0.0,0.0,0.0,0.0,0.0,0.0,0.0,0.0,0.0,0.0,0.0,0.0,0,0,0,0.0,0.0,false,0.0
52462,0.0,0.0,0.0,0.0,0.0,0.0,0.0,0.0,0.0,0.0,0.0,0.0,0,0,0,0.0,0.0,false,0.0
52462,0.0,0.0,0.0,0.0,0.0,0.0,0.0,0.0,0.0,0.0,0.0,0.0,0,0,0,0.0,0.0,false,0.0
52462,0.0,0.0,0.0,0.0,0.0,0.0,0.0,0.0,0.0,0.0,0.0,0.0,0,0,0,0.0,0.0,false,0.0
52462,0.0,0.0,0.0,0.0,0.0,0.0,0.0,0.0,0.0,0.0,0.0,0.0,0,0,0,0.0,0.0,false,0.0
52463,0.0,0.0,0.0,0.0,0.0,0.0,0.0,0.0,0.0,0.0,0.0,0.0,0,0,0,0.0,0.0,false,0.0
52463,0.0,0.0,0.0,0.0,0.0,0.0,0.0,0.0,0.0,0.0,0.0,0.0,0,0,0,0.0,0.0,false,0.0
52463,0.0,0.0,0.0,0.0,0.0,0.0,0.0,0.0,0.0,0.0,0.0,0.0,0,0,0,0.0,0.0,false,0.0
52463,0.0,0.0,0.0,0.0,0.0,0.0,0.0,0.0,0.0,0.0,0.0,0.0,0,0,0,0.0,0.0,false,0.0
52463,0.0,0.0,0.0,0.0,0.0,0.0,0.0,0.0,0.0,0.0,0.0,0.0,0,0,0,0.0,0.0,false,0.0
52463,0.0,0.0,0.0,0.0,0.0,0.0,0.0,0.0,0.0,0.0,0.0,0.0,0,0,0,0.0,0.0,false,0.0
52463,0.0,0.0,0.0,0.0,0.0,0.0,0.0,0.0,0.0,0.0,0.0,0.0,0,0,0,0.0,0.0,false,0.0
52463,0.0,0.0,0.0,0.0,0.0,0.0,0.0,0.0,0.0,0.0,0.0,0.0,0,0,0,0.0,0.0,false,0.0
52463,0.0,0.0,0.0,0.0,0.0,0.0,0.0,0.0,0.0,0.0,0.0,0.0,0,0,0,0.0,0.0,false,0.0
52464,0.0,0.0,0.0,0.0,0.0,0.0,0.0,0.0,0.0,0.0,0.0,0.0,0,0,0,0.0,0.0,false,0.0
52464,0.0,0.0,0.0,0.0,0.0,0.0,0.0,0.0,0.0,0.0,0.0,0.0,0,0,0,0.0,0.0,false,0.0
52464,0.0,0.0,0.0,0.0,0.0,0.0,0.0,0.0,0.0,0.0,0.0,0.0,0,0,0,0.0,0.0,false,0.0
52464,0.0,0.0,0.0,0.0,0.0,0.0,0.0,0.0,0.0,0.0,0.0,0.0,0,0,0,0.0,0.0,false,0.0
52464,0.0,0.0,0.0,0.0,0.0,0.0,0.0,0.0,0.0,0.0,0.0,0.0,0,0,0,0.0,0.0,false,0.0
52464,0.0,0.0,0.0,0.0,0.0,0.0,0.0,0.0,0.0,0.0,0.0,0.0,0,0,0,0.0,0.0,false,0.0
52464,0.0,0.0,0.0,0.0,0.0,0.0,0.0,0.0,0.0,0.0,0.0,0.0,0,0,0,0.0,0.0,false,0.0
52464,0.0,0.0,0.0,0.0,0.0,0.0,0.0,0.0,0.0,0.0,0.0,0.0,0,0,0,0.0,0.0,false,0.0
52464,0.0,0.0,0.0,0.0,0.0,0.0,0.0,0.0,0.0,0.0,0.0,0.0,0,0,0,0.0,0.0,false,0.0
52464,0.0,0.0,0.0,0.0,0.0,0.0,0.0,0.0,0.0,0.0,0.0,0.0,0,0,0,0.0,0.0,false,0.0
52464,0.0,0.0,0.0,0.0,0.0,0.0,0.0,0.0,0.0,0.0,0.0,0.0,0,0,0,0.0,0.0,false,0.0
52464,0.0,0.0,0.0,0.0,0.0,0.0,0.0,0.0,0.0,0.0,0.0,0.0,0,0,0,0.0,0.0,false,0.0
52464,0.0,0.0,0.0,0.0,0.0,0.0,0.0,0.0,0.0,0.0,0.0,0.0,0,0,0,0.0,0.0,false,0.0
52464,0.0,0.0,0.0,0.0,0.0,0.0,0.0,0.0,0.0,0.0,0.0,0.0,0,0,0,0.0,0.0,false,0.0
52464,0.0,0.0,0.0,0.0,0.0,0.0,0.0,0.0,0.0,0.0,0.0,0.0,0,0,0,0.0,0.0,false,0.0
52464,0.0,0.0,0.0,0.0,0.0,0.0,0.0,0.0,0.0,0.0,0.0,0.0,0,0,0,0.0,0.0,false,0.0
52464,0.0,0.0,0.0,0.0,0.0,0.0,0.0,0.0,0.0,0.0,0.0,0.0,0,0,0,0.0,0.0,false,0.0
52464,0.0,0.0,0.0,0.0,0.0,0.0,0.0,0.0,0.0,0.0,0.0,0.0,0,0,0,0.0,0.0,false,0.0
52464,0.0,0.0,0.0,0.0,0.0,0.0,0.0,0.0,0.0,0.0,0.0,0.0,0,0,0,0.0,0.0,false,0.0
52465,0.0,0.0,0.0,0.0,0.0,0.0,0.0,0.0,0.0,0.0,0.0,0.0,0,0,0,0.0,0.0,false,0.0
52465,0.0,0.0,0.0,0.0,0.0,0.0,0.0,0.0,0.0,0.0,0.0,0.0,0,0,0,0.0,0.0,false,0.0
52465,0.0,0.0,0.0,0.0,0.0,0.0,0.0,0.0,0.0,0.0,0.0,0.0,0,0,0,0.0,0.0,false,0.0
52465,0.0,0.0,0.0,0.0,0.0,0.0,0.0,0.0,0.0,0.0,0.0,0.0,0,0,0,0.0,0.0,false,0.0
52465,0.0,0.0,0.0,0.0,0.0,0.0,0.0,0.0,0.0,0.0,0.0,0.0,0,0,0,0.0,0.0,false,0.0
52465,0.0,0.0,0.0,0.0,0.0,0.0,0.0,0.0,0.0,0.0,0.0,0.0,0,0,0,0.0,0.0,false,0.0
52465,0.0,0.0,0.0,0.0,0.0,0.0,0.0,0.0,0.0,0.0,0.0,0.0,0,0,0,0.0,0.0,false,0.0
52465,-0.011230469,-0.023925781,-1.0341797,0.0031926755,-0.023412954,-0.017027603,215.70001,37.5,-34.2,41.238235,-128.91751,0.0,1,0,0,3.7030594,3.0761425,false,0.0
52509,-0.011230469,-0.023925781,-1.0341797,0.0031926755,-0.023412954,-0.017027603,215.70001,37.5,-34.2,41.238235,-128.91751,0.0,1,0,0,3.7030594,3.0761425,false,0.0
52509,-0.011230469,-0.023925781,-1.0341797,0.0031926755,-0.023412954,-0.017027603,215.70001,37.5,-34.2,41.238235,-128.91751,0.0,1,0,0,3.7030594,3.0761425,false,0.0
52510,-0.011230469,-0.023925781,-1.0341797,0.0031926755,-0.023412954,-0.017027603,215.70001,37.5,-34.2,41.238235,-128.91751,0.0,1,0,0,3.7030594,3.0761425,false,0.0
52510,-0.011230469,-0.023925781,-1.0341797,0.0031926755,-0.023412954,-0.017027603,215.70001,37.5,-34.2,41.238235,-128.91751,0.0,1,0,0,3.7030594,3.0761425,false,0.0
52510,-0.011230469,-0.023925781,-1.0341797,0.0031926755,-0.023412954,-0.017027603,215.70001,37.5,-34.2,41.238235,-128.91751,0.0,1,0,0,3.7030594,3.0761425,false,0.0
52511,-0.011230469,-0.023925781,-1.0341797,0.0031926755,-0.023412954,-0.017027603,215.70001,37.5,-34.2,41.238235,-128.91751,0.0,1,0,0,3.7030594,3.0761425,false,0.0
52511,-0.011230469,-0.023925781,-1.0341797,0.0031926755,-0.023412954,-0.017027603,215.70001,37.5,-34.2,41.238235,-128.91751,0.0,1,0,0,3.7030594,3.0761425,false,0.0
52511,-0.011230469,-0.023925781,-1.0341797,0.0031926755,-0.023412954,-0.017027603,215.70001,37.5,-34.2,41.238235,-128.91751,0.0,1,0,0,3.7030594,3.0761425,false,0.0
52511,-0.011230469,-0.023925781,-1.0341797,0.0031926755,-0.023412954,-0.017027603,215.70001,37.5,-34.2,41.238235,-128.91751,0.0,1,0,0,3.7030594,3.0761425,false,0.0
52511,-0.011230469,-0.023925781,-1.0341797,0.0031926755,-0.023412954,-0.017027603,215.70001,37.5,-34.2,41.238235,-128.91751,0.0,1,0,0,3.7030594,3.0761425,false,0.0
52511,-0.011230469,-0.023925781,-1.0341797,0.0031926755,-0.023412954,-0.017027603,215.70001,37.5,-34.2,41.238235,-128.91751,0.0,1,0,0,3.7030594,3.0761425,false,0.0
52512,-0.011230469,-0.023925781,-1.0341797,0.0031926755,-0.023412954,-0.017027603,215.70001,37.5,-34.2,41.238235,-128.91751,0.0,1,0,0,3.7030594,3.0761425,false,0.0
52512,-0.011230469,-0.023925781,-1.0341797,0.0031926755,-0.023412954,-0.017027603,215.70001,37.5,-34.2,41.238235,-128.91751,0.0,1,0,0,3.7030594,3.0761425,false,0.0
52512,-0.011230469,-0.023925781,-1.0341797,0.0031926755,-0.023412954,-0.017027603,215.70001,37.5,-34.2,41.238235,-128.91751,0.0,1,0,0,3.7030594,3.0761425,false,0.0
52512,-0.011230469,-0.023925781,-1.0341797,0.0031926755,-0.023412954,-0.017027603,215.70001,37.5,-34.2,41.238235,-128.91751,0.0,1,0,0,3.7030594,3.0761425,false,0.0
52512,-0.011230469,-0.023925781,-1.0341797,0.0031926755,-0.023412954,-0.017027603,215.70001,37.5,-34.2,41.238235,-128.91751,0.0,1,0,0,3.7030594,3.0761425,false,0.0
52512,-0.011230469,-0.023925781,-1.0341797,0.0031926755,-0.023412954,-0.017027603,215.70001,37.5,-34.2,41.238235,-128.91751,0.0,1,0,0,3.7030594,3.0761425,false,0.0
52512,-0.011230469,-0.023925781,-1.0341797,0.0031926755,-0.023412954,-0.017027603,215.70001,37.5,-34.2,41.238235,-128.91751,0.0,1,0,0,3.7030594,3.0761425,false,0.0
52512,-0.011230469,-0.023925781,-1.0341797,0.0031926755,-0.023412954,-0.017027603,215.70001,37.5,-34.2,41.238235,-128.91751,0.0,1,0,0,3.7030594,3.0761425,false,0.0
52512,-0.011230469,-0.023925781,-1.0341797,0.0031926755,-0.023412954,-0.017027603,215.70001,37.5,-34.2,41.238235,-128.91751,0.0,1,0,0,3.7030594,3.0761425,false,0.0
52512,-0.011230469,-0.023925781,-1.0341797,0.0031926755,-0.023412954,-0.017027603,215.70001,37.5,-34.2,41.238235,-128.91751,0.0,1,0,0,3.7030594,3.0761425,false,0.0
52513,-0.011230469,-0.023925781,-1.0341797,0.0031926755,-0.023412954,-0.017027603,215.70001,37.5,-34.2,41.238235,-128.91751,0.0,1,0,0,3.7030594,3.0761425,false,0.0
52513,-0.011230469,-0.023925781,-1.0341797,0.0031926755,-0.023412954,-0.017027603,215.70001,37.5,-34.2,41.238235,-128.91751,0.0,1,0,0,3.7030594,3.0761425,false,0.0
52513,-0.011230469,-0.023925781,-1.0341797,0.0031926755,-0.023412954,-0.017027603,215.70001,37.5,-34.2,41.238235,-128.91751,0.0,1,0,0,3.7030594,3.0761425,false,0.0
52513,-0.011230469,-0.023925781,-1.0341797,0.0031926755,-0.023412954,-0.017027603,215.70001,37.5,-34.2,41.238235,-128.91751,0.0,1,0,0,3.7030594,3.0761425,false,0.0
52513,-0.011230469,-0.023925781,-1.0341797,0.0031926755,-0.023412954,-0.017027603,215.70001,37.5,-34.2,41.238235,-128.91751,0.0,1,0,0,3.7030594,3.0761425,false,0.0
52513,-0.011230469,-0.023925781,-1.0341797,0.0031926755,-0.023412954,-0.017027603,215.70001,37.5,-34.2,41.238235,-128.91751,0.0,1,0,0,3.7030594,3.0761425,false,0.0
52513,-0.011230469,-0.023925781,-1.0341797,0.0031926755,-0.023412954,-0.017027603,215.70001,37.5,-34.2,41.238235,-128.91751,0.0,1,0,0,3.7030594,3.0761425,false,0.0
52513,-0.011230469,-0.023925781,-1.0341797,0.0031926755,-0.023412954,-0.017027603,215.70001,37.5,-34.2,41.238235,-128.91751,0.0,1,0,0,3.7030594,3.0761425,false,0.0
52513,-0.011230469,-0.023925781,-1.0341797,0.0031926755,-0.023412954,-0.017027603,215.70001,37.5,-34.2,41.238235,-128.91751,0.0,1,0,0,3.7030594,3.0761425,false,0.0
52514,-0.011230469,-0.023925781,-1.0341797,0.0031926755,-0.023412954,-0.017027603,215.70001,37.5,-34.2,41.238235,-128.91751,0.0,1,0,0,3.7030594,3.0761425,false,0.0
52514,-0.011230469,-0.023925781,-1.0341797,0.0031926755,-0.023412954,-0.017027603,215.70001,37.5,-34.2,41.238235,-128.91751,0.0,1,0,0,3.7030594,3.0761425,false,0.0
52514,-0.011230469,-0.023925781,-1.0341797,0.0031926755,-0.023412954,-0.017027603,215.70001,37.5,-34.2,41.238235,-128.91751,0.0,1,0,0,3.7030594,3.0761425,false,0.0
52514,-0.011230469,-0.023925781,-1.0341797,0.0031926755,-0.023412954,-0.017027603,215.70001,37.5,-34.2,41.238235,-128.91751,0.0,1,0,0,3.7030594,3.0761425,false,0.0
52514,-0.011230469,-0.023925781,-1.0341797,0.0031926755,-0.023412954,-0.017027603,215.70001,37.5,-34.2,41.238235,-128.91751,0.0,1,0,0,3.7030594,3.0761425,false,0.0
52514,-0.011230469,-0.023925781,-1.0341797,0.0031926755,-0.023412954,-0.017027603,215.70001,37.5,-34.2,41.238235,-128.91751,0.0,1,0,0,3.7030594,3.0761425,false,0.0
52514,-0.011230469,-0.023925781,-1.0341797,0.0031926755,-0.023412954,-0.017027603,215.70001,37.5,-34.2,41.238235,-128.91751,0.0,1,0,0,3.7030594,3.0761425,false,0.0
52514,-0.011230469,-0.023925781,-1.0341797,0.0031926755,-0.023412954,-0.017027603,215.70001,37.5,-34.2,41.238235,-128.91751,0.0,1,0,0,3.7030594,3.0761425,false,0.0
52514,-0.011230469,-0.023925781,-1.0341797,0.0031926755,-0.023412954,-0.017027603,215.70001,37.5,-34.2,41.238235,-128.91751,0.0,1,0,0,3.7030594,3.0761425,false,0.0
52515,-0.011230469,-0.023925781,-1.0341797,0.0031926755,-0.023412954,-0.017027603,215.70001,37.5,-34.2,41.238235,-128.91751,0.0,1,0,0,3.7030594,3.0761425,false,0.0
52515,-0.011230469,-0.023925781,-1.0341797,0.0031926755,-0.023412954,-0.017027603,215.70001,37.5,-34.2,41.238235,-128.91751,0.0,1,0,0,3.7030594,3.0761425,false,0.0
52515,-0.011230469,-0.023925781,-1.0341797,0.0031926755,-0.023412954,-0.017027603,215.70001,37.5,-34.2,41.238235,-128.91751,0.0,1,0,0,3.7030594,3.0761425,false,0.0
52515,-0.013671875,-0.01953125,-1.0371094,0.0031926755,-0.026605628,-0.015963377,217.8,36.0,-30.900002,41.22059,-128.91751,0.0,1,0,0,3.697261,3.0820172,false,0.0
52538,-0.013671875,-0.01953125,-1.0371094,0.0031926755,-0.026605628,-0.015963377,217.8,36.0,-30.900002,41.22059,-128.91751,0.0,1,0,0,3.697261,3.0820172,false,0.0
52538,-0.013671875,-0.01953125,-1.0371094,0.0031926755,-0.026605628,-0.015963377,217.8,36.0,-30.900002,41.22059,-128.91751,0.0,1,0,0,3.697261,3.0820172,false,0.0
52538,-0.013671875,-0.01953125,-1.0371094,0.0031926755,-0.026605628,-0.015963377,217.8,36.0,-30.900002,41.22059,-128.91751,0.0,1,0,0,3.697261,3.0820172,false,0.0
52538,-0.013671875,-0.01953125,-1.0371094,0.0031926755,-0.026605628,-0.015963377,217.8,36.0,-30.900002,41.22059,-128.91751,0.0,1,0,0,3.697261,3.0820172,false,0.0
52538,-0.013671875,-0.01953125,-1.0371094,0.0031926755,-0.026605628,-0.015963377,217.8,36.0,-30.900002,41.22059,-128.91751,0.0,1,0,0,3.697261,3.0820172,false,0.0
52552,-0.013671875,-0.01953125,-1.0371094,0.0031926755,-0.026605628,-0.015963377,217.8,36.0,-30.900002,41.22059,-128.91751,0.0,1,0,0,3.697261,3.0820172,false,0.0
52552,-0.013671875,-0.01953125,-1.0371094,0.0031926755,-0.026605628,-0.015963377,217.8,36.0,-30.900002,41.22059,-128.91751,0.0,1,0,0,3.697261,3.0820172,false,0.0
52552,-0.013671875,-0.01953125,-1.0371094,0.0031926755,-0.026605628,-0.015963377,217.8,36.0,-30.900002,41.22059,-128.91751,0.0,1,0,0,3.697261,3.0820172,false,0.0
52552,-0.013671875,-0.01953125,-1.0371094,0.0031926755,-0.026605628,-0.015963377,217.8,36.0,-30.900002,41.22059,-128.91751,0.0,1,0,0,3.697261,3.0820172,false,0.0
52552,-0.013671875,-0.01953125,-1.0371094,0.0031926755,-0.026605628,-0.015963377,217.8,36.0,-30.900002,41.22059,-128.91751,0.0,1,0,0,3.697261,3.0820172,false,0.0
52552,-0.013671875,-0.01953125,-1.0371094,0.0031926755,-0.026605628,-0.015963377,217.8,36.0,-30.900002,41.22059,-128.91751,0.0,1,0,0,3.697261,3.0820172,false,0.0
52552,-0.013671875,-0.01953125,-1.0371094,0.0031926755,-0.026605628,-0.015963377,217.8,36.0,-30.900002,41.22059,-128.91751,0.0,1,0,0,3.697261,3.0820172,false,0.0
52552,-0.013671875,-0.01953125,-1.0371094,0.0031926755,-0.026605628,-0.015963377,217.8,36.0,-30.900002,41.22059,-128.91751,0.0,1,0,0,3.697261,3.0820172,false,0.0
52552,-0.013671875,-0.01953125,-1.0371094,0.0031926755,-0.026605628,-0.015963377,217.8,36.0,-30.900002,41.22059,-128.91751,0.0,1,0,0,3.697261,3.0820172,false,0.0
52552,-0.013671875,-0.01953125,-1.0371094,0.0031926755,-0.026605628,-0.015963377,217.8,36.0,-30.900002,41.22059,-128.91751,0.0,1,0,0,3.697261,3.0820172,false,0.0
52552,-0.013671875,-0.01953125,-1.0371094,0.0031926755,-0.026605628,-0.015963377,217.8,36.0,-30.900002,41.22059,-128.91751,0.0,1,0,0,3.697261,3.0820172,false,0.0
52552,-0.013671875,-0.01953125,-1.0371094,0.0031926755,-0.026605628,-0.015963377,217.8,36.0,-30.900002,41.22059,-128.91751,0.0,1,0,0,3.697261,3.0820172,false,0.0
52552,-0.013671875,-0.01953125,-1.0371094,0.0031926755,-0.026605628,-0.015963377,217.8,36.0,-30.900002,41.22059,-128.91751,0.0,1,0,0,3.697261,3.0820172,false,0.0
52552,-0.013671875,-0.01953125,-1.0371094,0.0031926755,-0.026605628,-0.015963377,217.8,36.0,-30.900002,41.22059,-128.91751,0.0,1,0,0,3.697261,3.0820172,false,0.0
52552,-0.013671875,-0.01953125,-1.0371094,0.0031926755,-0.026605628,-0.015963377,217.8,36.0,-30.900002,41.22059,-128.91751,0.0,1,0,0,3.697261,3.0820172,false,0.0
52552,-0.013671875,-0.01953125,-1.0371094,0.0031926755,-0.026605628,-0.015963377,217.8,36.0,-30.900002,41.22059,-128.91751,0.0,1,0,0,3.697261,3.0820172,false,0.0
52552,-0.013671875,-0.01953125,-1.0371094,0.0031926755,-0.026605628,-0.015963377,217.8,36.0,-30.900002,41.22059,-128.91751,0.0,1,0,0,3.697261,3.0820172,false,0.0
52553,-0.013671875,-0.01953125,-1.0371094,0.0031926755,-0.026605628,-0.015963377,217.8,36.0,-30.900002,41.22059,-128.91751,0.0,1,0,0,3.697261,3.0820172,false,0.0
52553,-0.013671875,-0.01953125,-1.0371094,0.0031926755,-0.026605628,-0.015963377,217.8,36.0,-30.900002,41.22059,-128.91751,0.0,1,0,0,3.697261,3.0820172,false,0.0
52553,-0.013671875,-0.01953125,-1.0371094,0.0031926755,-0.026605628,-0.015963377,217.8,36.0,-30.900002,41.22059,-128.91751,0.0,1,0,0,3.697261,3.0820172,false,0.0
52553,-0.013671875,-0.01953125,-1.0371094,0.0031926755,-0.026605628,-0.015963377,217.8,36.0,-30.900002,41.22059,-128.91751,0.0,1,0,0,3.697261,3.0820172,false,0.0
52553,-0.013671875,-0.01953125,-1.0371094,0.0031926755,-0.026605628,-0.015963377,217.8,36.0,-30.900002,41.22059,-128.91751,0.0,1,0,0,3.697261,3.0820172,false,0.0
52553,-0.013671875,-0.01953125,-1.0371094,0.0031926755,-0.026605628,-0.015963377,217.8,36.0,-30.900002,41.22059,-128.91751,0.0,1,0,0,3.697261,3.0820172,false,0.0
52553,-0.013671875,-0.01953125,-1.0371094,0.0031926755,-0.026605628,-0.015963377,217.8,36.0,-30.900002,41.22059,-128.91751,0.0,1,0,0,3.697261,3.0820172,false,0.0
52553,-0.013671875,-0.01953125,-1.0371094,0.0031926755,-0.026605628,-0.015963377,217.8,36.0,-30.900002,41.22059,-128.91751,0.0,1,0,0,3.697261,3.0820172,false,0.0
52553,-0.013671875,-0.01953125,-1.0371094,0.0031926755,-0.026605628,-0.015963377,217.8,36.0,-30.900002,41.22059,-128.91751,0.0,1,0,0,3.697261,3.0820172,false,0.0
52553,-0.013671875,-0.01953125,-1.0371094,0.0031926755,-0.026605628,-0.015963377,217.8,36.0,-30.900002,41.22059,-128.91751,0.0,1,0,0,3.697261,3.0820172,false,0.0
52553,-0.013671875,-0.01953125,-1.0371094,0.0031926755,-0.026605628,-0.015963377,217.8,36.0,-30.900002,41.22059,-128.91751,0.0,1,0,0,3.697261,3.0820172,false,0.0
52553,-0.013671875,-0.01953125,-1.0371094,0.0031926755,-0.026605628,-0.015963377,217.8,36.0,-30.900002,41.22059,-128.91751,0.0,1,0,0,3.697261,3.0820172,false,0.0
52553,-0.013671875,-0.01953125,-1.0371094,0.0031926755,-0.026605628,-0.015963377,217.8,36.0,-30.900002,41.22059,-128.91751,0.0,1,0,0,3.697261,3.0820172,false,0.0
52554,-0.013671875,-0.01953125,-1.0371094,0.0031926755,-0.026605628,-0.015963377,217.8,36.0,-30.900002,41.22059,-128.91751,0.0,1,0,0,3.697261,3.0820172,false,0.0
52554,-0.013671875,-0.01953125,-1.0371094,0.0031926755,-0.026605628,-0.015963377,217.8,36.0,-30.900002,41.22059,-128.91751,0.0,1,0,0,3.697261,3.0820172,false,0.0
52554,-0.013671875,-0.01953125,-1.0371094,0.0031926755,-0.026605628,-0.015963377,217.8,36.0,-30.900002,41.22059,-128.91751,0.0,1,0,0,3.697261,3.0820172,false,0.0
52554,-0.013671875,-0.01953125,-1.0371094,0.0031926755,-0.026605628,-0.015963377,217.8,36.0,-30.900002,41.22059,-128.91751,0.0,1,0,0,3.697261,3.0820172,false,0.0
52554,-0.013671875,-0.01953125,-1.0371094,0.0031926755,-0.026605628,-0.015963377,217.8,36.0,-30.900002,41.22059,-128.91751,0.0,1,0,0,3.697261,3.0820172,false,0.0
52554,-0.013671875,-0.01953125,-1.0371094,0.0031926755,-0.026605628,-0.015963377,217.8,36.0,-30.900002,41.22059,-128.91751,0.0,1,0,0,3.697261,3.0820172,false,0.0
52554,-0.013671875,-0.01953125,-1.0371094,0.0031926755,-0.026605628,-0.015963377,217.8,36.0,-30.900002,41.22059,-128.91751,0.0,1,0,0,3.697261,3.0820172,false,0.0
52554,-0.013183594,-0.0234375,-1.0332031,0.005321126,-0.025541404,-0.014899152,218.40001,35.4,-29.400002,41.214706,-128.91751,0.0,1,0,0,3.708934,3.0761425,false,0.0
52598,-0.013183594,-0.0234375,-1.0332031,0.005321126,-0.025541404,-0.014899152,218.40001,35.4,-29.400002,41.214706,-128.91751,0.0,1,0,0,3.708934,3.0761425,false,0.0
52598,-0.013183594,-0.0234375,-1.0332031,0.005321126,-0.025541404,-0.014899152,218.40001,35.4,-29.400002,41.214706,-128.91751,0.0,1,0,0,3.708934,3.0761425,false,0.0
52598,-0.013183594,-0.0234375,-1.0332031,0.005321126,-0.025541404,-0.014899152,218.40001,35.4,-29.400002,41.214706,-128.91751,0.0,1,0,0,3.708934,3.0761425,false,0.0
52598,-0.013183594,-0.0234375,-1.0332031,0.005321126,-0.025541404,-0.014899152,218.40001,35.4,-29.400002,41.214706,-128.91751,0.0,1,0,0,3.708934,3.0761425,false,0.0
52598,-0.013183594,-0.0234375,-1.0332031,0.005321126,-0.025541404,-0.014899152,218.40001,35.4,-29.400002,41.214706,-128.91751,0.0,1,0,0,3.708934,3.0761425,false,0.0
52598,-0.013183594,-0.0234375,-1.0332031,0.005321126,-0.025541404,-0.014899152,218.40001,35.4,-29.400002,41.214706,-128.91751,0.0,1,0,0,3.708934,3.0761425,false,0.0
52598,-0.013183594,-0.0234375,-1.0332031,0.005321126,-0.025541404,-0.014899152,218.40001,35.4,-29.400002,41.214706,-128.91751,0.0,1,0,0,3.708934,3.0761425,false,0.0
52598,-0.013183594,-0.0234375,-1.0332031,0.005321126,-0.025541404,-0.014899152,218.40001,35.4,-29.400002,41.214706,-128.91751,0.0,1,0,0,3.708934,3.0761425,false,0.0
52598,-0.013183594,-0.0234375,-1.0332031,0.005321126,-0.025541404,-0.014899152,218.40001,35.4,-29.400002,41.214706,-128.91751,0.0,1,0,0,3.708934,3.0761425,false,0.0
52598,-0.013183594,-0.0234375,-1.0332031,0.005321126,-0.025541404,-0.014899152,218.40001,35.4,-29.400002,41.214706,-128.91751,0.0,1,0,0,3.708934,3.0761425,false,0.0
52598,-0.013183594,-0.0234375,-1.0332031,0.005321126,-0.025541404,-0.014899152,218.40001,35.4,-29.400002,41.214706,-128.91751,0.0,1,0,0,3.708934,3.0761425,false,0.0
52598,-0.013183594,-0.0234375,-1.0332031,0.005321126,-0.025541404,-0.014899152,218.40001,35.4,-29.400002,41.214706,-128.91751,0.0,1,0,0,3.708934,3.0761425,false,0.0
52598,-0.013183594,-0.0234375,-1.0332031,0.005321126,-0.025541404,-0.014899152,218.40001,35.4,-29.400002,41.214706,-128.91751,0.0,1,0,0,3.708934,3.0761425,false,0.0
52598,-0.013183594,-0.0234375,-1.0332031,0.005321126,-0.025541404,-0.014899152,218.40001,35.4,-29.400002,41.214706,-128.91751,0.0,1,0,0,3.708934,3.0761425,false,0.0
52599,-0.013183594,-0.0234375,-1.0332031,0.005321126,-0.025541404,-0.014899152,218.40001,35.4,-29.400002,41.214706,-128.91751,0.0,1,0,0,3.708934,3.0761425,false,0.0
52599,-0.013183594,-0.0234375,-1.0332031,0.005321126,-0.025541404,-0.014899152,218.40001,35.4,-29.400002,41.214706,-128.91751,0.0,1,0,0,3.708934,3.0761425,false,0.0
52599,-0.013183594,-0.0234375,-1.0332031,0.005321126,-0.025541404,-0.014899152,218.40001,35.4,-29.400002,41.214706,-128.91751,0.0,1,0,0,3.708934,3.0761425,false,0.0
52599,-0.013183594,-0.0234375,-1.0332031,0.005321126,-0.025541404,-0.014899152,218.40001,35.4,-29.400002,41.214706,-128.91751,0.0,1,0,0,3.708934,3.0761425,false,0.0
52599,-0.013183594,-0.0234375,-1.0332031,0.005321126,-0.025541404,-0.014899152,218.40001,35.4,-29.400002,41.214706,-128.91751,0.0,1,0,0,3.708934,3.0761425,false,0.0
52599,-0.013183594,-0.0234375,-1.0332031,0.005321126,-0.025541404,-0.014899152,218.40001,35.4,-29.400002,41.214706,-128.91751,0.0,1,0,0,3.708934,3.0761425,false,0.0
52599,-0.013183594,-0.0234375,-1.0332031,0.005321126,-0.025541404,-0.014899152,218.40001,35.4,-29.400002,41.214706,-128.91751,0.0,1,0,0,3.708934,3.0761425,false,0.0
52599,-0.013183594,-0.0234375,-1.0332031,0.005321126,-0.025541404,-0.014899152,218.40001,35.4,-29.400002,41.214706,-128.91751,0.0,1,0,0,3.708934,3.0761425,false,0.0
52599,-0.013183594,-0.0234375,-1.0332031,0.005321126,-0.025541404,-0.014899152,218.40001,35.4,-29.400002,41.214706,-128.91751,0.0,1,0,0,3.708934,3.0761425,false,0.0
52599,-0.013183594,-0.0234375,-1.0332031,0.005321126,-0.025541404,-0.014899152,218.40001,35.4,-29.400002,41.214706,-128.91751,0.0,1,0,0,3.708934,3.0761425,false,0.0
52599,-0.013183594,-0.0234375,-1.0332031,0.005321126,-0.025541404,-0.014899152,218.40001,35.4,-29.400002,41.214706,-128.91751,0.0,1,0,0,3.708934,3.0761425,false,0.0
52599,-0.013183594,-0.0234375,-1.0332031,0.005321126,-0.025541404,-0.014899152,218.40001,35.4,-29.400002,41.214706,-128.91751,0.0,1,0,0,3.708934,3.0761425,false,0.0
52599,-0.013183594,-0.0234375,-1.0332031,0.005321126,-0.025541404,-0.014899152,218.40001,35.4,-29.400002,41.214706,-128.91751,0.0,1,0,0,3.708934,3.0761425,false,0.0
52599,-0.013183594,-0.0234375,-1.0332031,0.005321126,-0.025541404,-0.014899152,218.40001,35.4,-29.400002,41.214706,-128.91751,0.0,1,0,0,3.708934,3.0761425,false,0.0
52599,-0.013183594,-0.0234375,-1.0332031,0.005321126,-0.025541404,-0.014899152,218.40001,35.4,-29.400002,41.214706,-128.91751,0.0,1,0,0,3.708934,3.0761425,false,0.0
52606,-0.013183594,-0.0234375,-1.0332031,0.005321126,-0.025541404,-0.014899152,218.40001,35.4,-29.400002,41.214706,-128.91751,0.0,1,0,0,3.708934,3.0761425,false,0.0
52607,-0.013183594,-0.0234375,-1.0332031,0.005321126,-0.025541404,-0.014899152,218.40001,35.4,-29.400002,41.214706,-128.91751,0.0,1,0,0,3.708934,3.0761425,false,0.0
52607,-0.013183594,-0.0234375,-1.0332031,0.005321126,-0.025541404,-0.014899152,218.40001,35.4,-29.400002,41.214706,-128.91751,0.0,1,0,0,3.708934,3.0761425,false,0.0
52607,-0.013183594,-0.0234375,-1.0332031,0.005321126,-0.025541404,-0.014899152,218.40001,35.4,-29.400002,41.214706,-128.91751,0.0,1,0,0,3.708934,3.0761425,false,0.0
52607,-0.013183594,-0.0234375,-1.0332031,0.005321126,-0.025541404,-0.014899152,218.40001,35.4,-29.400002,41.214706,-128.91751,0.0,1,0,0,3.708934,3.0761425,false,0.0
52607,-0.013183594,-0.0234375,-1.0332031,0.005321126,-0.025541404,-0.014899152,218.40001,35.4,-29.400002,41.214706,-128.91751,0.0,1,0,0,3.708934,3.0761425,false,0.0
52607,-0.013183594,-0.0234375,-1.0332031,0.005321126,-0.025541404,-0.014899152,218.40001,35.4,-29.400002,41.214706,-128.91751,0.0,1,0,0,3.708934,3.0761425,false,0.0
52607,-0.013183594,-0.0234375,-1.0332031,0.005321126,-0.025541404,-0.014899152,218.40001,35.4,-29.400002,41.214706,-128.91751,0.0,1,0,0,3.708934,3.0761425,false,0.0
52607,-0.013183594,-0.0234375,-1.0332031,0.005321126,-0.025541404,-0.014899152,218.40001,35.4,-29.400002,41.214706,-128.91751,0.0,1,0,0,3.708934,3.0761425,false,0.0
52607,-0.013183594,-0.0234375,-1.0332031,0.005321126,-0.025541404,-0.014899152,218.40001,35.4,-29.400002,41.214706,-128.91751,0.0,1,0,0,3.708934,3.0761425,false,0.0
52607,-0.013183594,-0.0234375,-1.0332031,0.005321126,-0.025541404,-0.014899152,218.40001,35.4,-29.400002,41.214706,-128.91751,0.0,1,0,0,3.708934,3.0761425,false,0.0
52607,-0.013183594,-0.0234375,-1.0332031,0.005321126,-0.025541404,-0.014899152,218.40001,35.4,-29.400002,41.214706,-128.91751,0.0,1,0,0,3.708934,3.0761425,false,0.0
52607,-0.013183594,-0.0234375,-1.0332031,0.005321126,-0.025541404,-0.014899152,218.40001,35.4,-29.400002,41.214706,-128.91751,0.0,1,0,0,3.708934,3.0761425,false,0.0
52607,-0.011230469,-0.024414062,-1.034668,0.005321126,-0.023412954,-0.015963377,217.50002,37.2,-33.9,41.238235,-128.91751,0.0,1,0,0,3.7030594,3.0761425,false,0.0
52657,-0.011230469,-0.024414062,-1.034668,0.005321126,-0.023412954,-0.015963377,217.50002,37.2,-33.9,41.238235,-128.91751,0.0,1,0,0,3.7030594,3.0761425,false,0.0
52657,-0.011230469,-0.024414062,-1.034668,0.005321126,-0.023412954,-0.015963377,217.50002,37.2,-33.9,41.238235,-128.91751,0.0,1,0,0,3.7030594,3.0761425,false,0.0
52657,-0.011230469,-0.024414062,-1.034668,0.005321126,-0.023412954,-0.015963377,217.50002,37.2,-33.9,41.238235,-128.91751,0.0,1,0,0,3.7030594,3.0761425,false,0.0
52657,-0.011230469,-0.024414062,-1.034668,0.005321126,-0.023412954,-0.015963377,217.50002,37.2,-33.9,41.238235,-128.91751,0.0,1,0,0,3.7030594,3.0761425,false,0.0
52657,-0.011230469,-0.024414062,-1.034668,0.005321126,-0.023412954,-0.015963377,217.50002,37.2,-33.9,41.238235,-128.91751,0.0,1,0,0,3.7030594,3.0761425,false,0.0
52657,-0.011230469,-0.024414062,-1.034668,0.005321126,-0.023412954,-0.015963377,217.50002,37.2,-33.9,41.238235,-128.91751,0.0,1,0,0,3.7030594,3.0761425,false,0.0
52657,-0.011230469,-0.024414062,-1.034668,0.005321126,-0.023412954,-0.015963377,217.50002,37.2,-33.9,41.238235,-128.91751,0.0,1,0,0,3.7030594,3.0761425,false,0.0
52657,-0.011230469,-0.024414062,-1.034668,0.005321126,-0.023412954,-0.015963377,217.50002,37.2,-33.9,41.238235,-128.91751,0.0,1,0,0,3.7030594,3.0761425,false,0.0
52657,-0.011230469,-0.024414062,-1.034668,0.005321126,-0.023412954,-0.015963377,217.50002,37.2,-33.9,41.238235,-128.91751,0.0,1,0,0,3.7030594,3.0761425,false,0.0
52657,-0.011230469,-0.024414062,-1.034668,0.005321126,-0.023412954,-0.015963377,217.50002,37.2,-33.9,41.238235,-128.91751,0.0,1,0,0,3.7030594,3.0761425,false,0.0
52657,-0.011230469,-0.024414062,-1.034668,0.005321126,-0.023412954,-0.015963377,217.50002,37.2,-33.9,41.238235,-128.91751,0.0,1,0,0,3.7030594,3.0761425,false,0.0
52657,-0.011230469,-0.024414062,-1.034668,0.005321126,-0.023412954,-0.015963377,217.50002,37.2,-33.9,41.238235,-128.91751,0.0,1,0,0,3.7030594,3.0761425,false,0.0
52657,-0.011230469,-0.024414062,-1.034668,0.005321126,-0.023412954,-0.015963377,217.50002,37.2,-33.9,41.238235,-128.91751,0.0,1,0,0,3.7030594,3.0761425,false,0.0
52657,-0.011230469,-0.024414062,-1.034668,0.005321126,-0.023412954,-0.015963377,217.50002,37.2,-33.9,41.238235,-128.91751,0.0,1,0,0,3.7030594,3.0761425,false,0.0
52658,-0.011230469,-0.024414062,-1.034668,0.005321126,-0.023412954,-0.015963377,217.50002,37.2,-33.9,41.238235,-128.91751,0.0,1,0,0,3.7030594,3.0761425,false,0.0
52658,-0.011230469,-0.024414062,-1.034668,0.005321126,-0.023412954,-0.015963377,217.50002,37.2,-33.9,41.238235,-128.91751,0.0,1,0,0,3.7030594,3.0761425,false,0.0
52658,-0.011230469,-0.024414062,-1.034668,0.005321126,-0.023412954,-0.015963377,217.50002,37.2,-33.9,41.238235,-128.91751,0.0,1,0,0,3.7030594,3.0761425,false,0.0
52658,-0.011230469,-0.024414062,-1.034668,0.005321126,-0.023412954,-0.015963377,217.50002,37.2,-33.9,41.238235,-128.91751,0.0,1,0,0,3.7030594,3.0761425,false,0.0
52658,-0.011230469,-0.024414062,-1.034668,0.005321126,-0.023412954,-0.015963377,217.50002,37.2,-33.9,41.238235,-128.91751,0.0,1,0,0,3.7030594,3.0761425,false,0.0
52658,-0.011230469,-0.024414062,-1.034668,0.005321126,-0.023412954,-0.015963377,217.50002,37.2,-33.9,41.238235,-128.91751,0.0,1,0,0,3.7030594,3.0761425,false,0.0
52658,-0.011230469,-0.024414062,-1.034668,0.005321126,-0.023412954,-0.015963377,217.50002,37.2,-33.9,41.238235,-128.91751,0.0,1,0,0,3.7030594,3.0761425,false,0.0
52658,-0.011230469,-0.024414062,-1.034668,0.005321126,-0.023412954,-0.015963377,217.50002,37.2,-33.9,41.238235,-128.91751,0.0,1,0,0,3.7030594,3.0761425,false,0.0
52658,-0.011230469,-0.024414062,-1.034668,0.005321126,-0.023412954,-0.015963377,217.50002,37.2,-33.9,41.238235,-128.91751,0.0,1,0,0,3.7030594,3.0761425,false,0.0
52658,-0.011230469,-0.024414062,-1.034668,0.005321126,-0.023412954,-0.015963377,217.50002,37.2,-33.9,41.238235,-128.91751,0.0,1,0,0,3.7030594,3.0761425,false,0.0
52658,-0.011230469,-0.024414062,-1.034668,0.005321126,-0.023412954,-0.015963377,217.50002,37.2,-33.9,41.238235,-128.91751,0.0,1,0,0,3.7030594,3.0761425,false,0.0
52658,-0.011230469,-0.024414062,-1.034668,0.005321126,-0.023412954,-0.015963377,217.50002,37.2,-33.9,41.238235,-128.91751,0.0,1,0,0,3.7030594,3.0761425,false,0.0
52658,-0.011230469,-0.024414062,-1.034668,0.005321126,-0.023412954,-0.015963377,217.50002,37.2,-33.9,41.238235,-128.91751,0.0,1,0,0,3.7030594,3.0761425,false,0.0
52659,-0.011230469,-0.024414062,-1.034668,0.005321126,-0.023412954,-0.015963377,217.50002,37.2,-33.9,41.238235,-128.91751,0.0,1,0,0,3.7030594,3.0761425,false,0.0
52659,-0.011230469,-0.024414062,-1.034668,0.005321126,-0.023412954,-0.015963377,217.50002,37.2,-33.9,41.238235,-128.91751,0.0,1,0,0,3.7030594,3.0761425,false,0.0
52659,-0.011230469,-0.024414062,-1.034668,0.005321126,-0.023412954,-0.015963377,217.50002,37.2,-33.9,41.238235,-128.91751,0.0,1,0,0,3.7030594,3.0761425,false,0.0
52659,-0.011230469,-0.024414062,-1.034668,0.005321126,-0.023412954,-0.015963377,217.50002,37.2,-33.9,41.238235,-128.91751,0.0,1,0,0,3.7030594,3.0761425,false,0.0
52659,-0.011230469,-0.024414062,-1.034668,0.005321126,-0.023412954,-0.015963377,217.50002,37.2,-33.9,41.238235,-128.91751,0.0,1,0,0,3.7030594,3.0761425,false,0.0
52659,-0.011230469,-0.024414062,-1.034668,0.005321126,-0.023412954,-0.015963377,217.50002,37.2,-33.9,41.238235,-128.91751,0.0,1,0,0,3.7030594,3.0761425,false,0.0
52659,-0.011230469,-0.024414062,-1.034668,0.005321126,-0.023412954,-0.015963377,217.50002,37.2,-33.9,41.238235,-128.91751,0.0,1,0,0,3.7030594,3.0761425,false,0.0
52659,-0.011230469,-0.024414062,-1.034668,0.005321126,-0.023412954,-0.015963377,217.50002,37.2,-33.9,41.238235,-128.91751,0.0,1,0,0,3.7030594,3.0761425,false,0.0
52660,-0.011230469,-0.024414062,-1.034668,0.005321126,-0.023412954,-0.015963377,217.50002,37.2,-33.9,41.238235,-128.91751,0.0,1,0,0,3.7030594,3.0761425,false,0.0
52660,-0.011230469,-0.024414062,-1.034668,0.005321126,-0.023412954,-0.015963377,217.50002,37.2,-33.9,41.238235,-128.91751,0.0,1,0,0,3.7030594,3.0761425,false,0.0
52660,-0.011230469,-0.024414062,-1.034668,0.005321126,-0.023412954,-0.015963377,217.50002,37.2,-33.9,41.238235,-128.91751,0.0,1,0,0,3.7030594,3.0761425,false,0.0
52660,-0.011230469,-0.024414062,-1.034668,0.005321126,-0.023412954,-0.015963377,217.50002,37.2,-33.9,41.238235,-128.91751,0.0,1,0,0,3.7030594,3.0761425,false,0.0
52660,-0.011230469,-0.024414062,-1.034668,0.005321126,-0.023412954,-0.015963377,217.50002,37.2,-33.9,41.238235,-128.91751,0.0,1,0,0,3.7030594,3.0761425,false,0.0
52660,-0.011230469,-0.024414062,-1.034668,0.005321126,-0.023412954,-0.015963377,217.50002,37.2,-33.9,41.238235,-128.91751,0.0,1,0,0,3.7030594,3.0761425,false,0.0
52660,-0.011230469,-0.024414062,-1.034668,0.005321126,-0.023412954,-0.015963377,217.50002,37.2,-33.9,41.238235,-128.91751,0.0,1,0,0,3.7030594,3.0761425,false,0.0
52660,-0.011230469,-0.024902344,-1.0361328,0.004256901,-0.022348728,-0.015963377,217.20001,35.4,-31.500002,41.2,-128.91751,0.0,1,0,0,3.6855116,3.0761425,false,0.0
52700,-0.011230469,-0.024902344,-1.0361328,0.004256901,-0.022348728,-0.015963377,217.20001,35.4,-31.500002,41.2,-128.91751,0.0,1,0,0,3.6855116,3.0761425,false,0.0
52702,-0.011230469,-0.024902344,-1.0361328,0.004256901,-0.022348728,-0.015963377,217.20001,35.4,-31.500002,41.2,-128.91751,0.0,1,0,0,3.6855116,3.0761425,false,0.0
52702,-0.011230469,-0.024902344,-1.0361328,0.004256901,-0.022348728,-0.015963377,217.20001,35.4,-31.500002,41.2,-128.91751,0.0,1,0,0,3.6855116,3.0761425,false,0.0
52702,-0.011230469,-0.024902344,-1.0361328,0.004256901,-0.022348728,-0.015963377,217.20001,35.4,-31.500002,41.2,-128.91751,0.0,1,0,0,3.6855116,3.0761425,false,0.0
52702,-0.011230469,-0.024902344,-1.0361328,0.004256901,-0.022348728,-0.015963377,217.20001,35.4,-31.500002,41.2,-128.91751,0.0,1,0,0,3.6855116,3.0761425,false,0.0
52702,-0.011230469,-0.024902344,-1.0361328,0.004256901,-0.022348728,-0.015963377,217.20001,35.4,-31.500002,41.2,-128.91751,0.0,1,0,0,3.6855116,3.0761425,false,0.0
52702,-0.011230469,-0.024902344,-1.0361328,0.004256901,-0.022348728,-0.015963377,217.20001,35.4,-31.500002,41.2,-128.91751,0.0,1,0,0,3.6855116,3.0761425,false,0.0
52702,-0.011230469,-0.024902344,-1.0361328,0.004256901,-0.022348728,-0.015963377,217.20001,35.4,-31.500002,41.2,-128.91751,0.0,1,0,0,3.6855116,3.0761425,false,0.0
52702,-0.011230469,-0.024902344,-1.0361328,0.004256901,-0.022348728,-0.015963377,217.20001,35.4,-31.500002,41.2,-128.91751,0.0,1,0,0,3.6855116,3.0761425,false,0.0
52702,-0.011230469,-0.024902344,-1.0361328,0.004256901,-0.022348728,-0.015963377,217.20001,35.4,-31.500002,41.2,-128.91751,0.0,1,0,0,3.6855116,3.0761425,false,0.0
52702,-0.011230469,-0.024902344,-1.0361328,0.004256901,-0.022348728,-0.015963377,217.20001,35.4,-31.500002,41.2,-128.91751,0.0,1,0,0,3.6855116,3.0761425,false,0.0
52702,-0.011230469,-0.024902344,-1.0361328,0.004256901,-0.022348728,-0.015963377,217.20001,35.4,-31.500002,41.2,-128.91751,0.0,1,0,0,3.6855116,3.0761425,false,0.0
52702,-0.011230469,-0.024902344,-1.0361328,0.004256901,-0.022348728,-0.015963377,217.20001,35.4,-31.500002,41.2,-128.91751,0.0,1,0,0,3.6855116,3.0761425,false,0.0
52702,-0.011230469,-0.024902344,-1.0361328,0.004256901,-0.022348728,-0.015963377,217.20001,35.4,-31.500002,41.2,-128.91751,0.0,1,0,0,3.6855116,3.0761425,false,0.0
52702,-0.011230469,-0.024902344,-1.0361328,0.004256901,-0.022348728,-0.015963377,217.20001,35.4,-31.500002,41.2,-128.91751,0.0,1,0,0,3.6855116,3.0761425,false,0.0
52702,-0.011230469,-0.024902344,-1.0361328,0.004256901,-0.022348728,-0.015963377,217.20001,35.4,-31.500002,41.2,-128.91751,0.0,1,0,0,3.6855116,3.0761425,false,0.0
52702,-0.011230469,-0.024902344,-1.0361328,0.004256901,-0.022348728,-0.015963377,217.20001,35.4,-31.500002,41.2,-128.91751,0.0,1,0,0,3.6855116,3.0761425,false,0.0
52702,-0.011230469,-0.024902344,-1.0361328,0.004256901,-0.022348728,-0.015963377,217.20001,35.4,-31.500002,41.2,-128.91751,0.0,1,0,0,3.6855116,3.0761425,false,0.0
52702,-0.011230469,-0.024902344,-1.0361328,0.004256901,-0.022348728,-0.015963377,217.20001,35.4,-31.500002,41.2,-128.91751,0.0,1,0,0,3.6855116,3.0761425,false,0.0
52702,-0.011230469,-0.024902344,-1.0361328,0.004256901,-0.022348728,-0.015963377,217.20001,35.4,-31.500002,41.2,-128.91751,0.0,1,0,0,3.6855116,3.0761425,false,0.0
52702,-0.011230469,-0.024902344,-1.0361328,0.004256901,-0.022348728,-0.015963377,217.20001,35.4,-31.500002,41.2,-128.91751,0.0,1,0,0,3.6855116,3.0761425,false,0.0
52702,-0.011230469,-0.024902344,-1.0361328,0.004256901,-0.022348728,-0.015963377,217.20001,35.4,-31.500002,41.2,-128.91751,0.0,1,0,0,3.6855116,3.0761425,false,0.0
52702,-0.011230469,-0.024902344,-1.0361328,0.004256901,-0.022348728,-0.015963377,217.20001,35.4,-31.500002,41.2,-128.91751,0.0,1,0,0,3.6855116,3.0761425,false,0.0
52702,-0.011230469,-0.024902344,-1.0361328,0.004256901,-0.022348728,-0.015963377,217.20001,35.4,-31.500002,41.2,-128.91751,0.0,1,0,0,3.6855116,3.0761425,false,0.0
52702,-0.011230469,-0.024902344,-1.0361328,0.004256901,-0.022348728,-0.015963377,217.20001,35.4,-31.500002,41.2,-128.91751,0.0,1,0,0,3.6855116,3.0761425,false,0.0
52702,-0.011230469,-0.024902344,-1.0361328,0.004256901,-0.022348728,-0.015963377,217.20001,35.4,-31.500002,41.2,-128.91751,0.0,1,0,0,3.6855116,3.0761425,false,0.0
52703,-0.011230469,-0.024902344,-1.0361328,0.004256901,-0.022348728,-0.015963377,217.20001,35.4,-31.500002,41.2,-128.91751,0.0,1,0,0,3.6855116,3.0761425,false,0.0
52703,-0.011230469,-0.024902344,-1.0361328,0.004256901,-0.022348728,-0.015963377,217.20001,35.4,-31.500002,41.2,-128.91751,0.0,1,0,0,3.6855116,3.0761425,false,0.0
52703,-0.011230469,-0.024902344,-1.0361328,0.004256901,-0.022348728,-0.015963377,217.20001,35.4,-31.500002,41.2,-128.91751,0.0,1,0,0,3.6855116,3.0761425,false,0.0
52703,-0.011230469,-0.024902344,-1.0361328,0.004256901,-0.022348728,-0.015963377,217.20001,35.4,-31.500002,41.2,-128.91751,0.0,1,0,0,3.6855116,3.0761425,false,0.0
52703,-0.011230469,-0.024902344,-1.0361328,0.004256901,-0.022348728,-0.015963377,217.20001,35.4,-31.500002,41.2,-128.91751,0.0,1,0,0,3.6855116,3.0761425,false,0.0
52703,-0.011230469,-0.024902344,-1.0361328,0.004256901,-0.022348728,-0.015963377,217.20001,35.4,-31.500002,41.2,-128.91751,0.0,1,0,0,3.6855116,3.0761425,false,0.0
52703,-0.011230469,-0.024902344,-1.0361328,0.004256901,-0.022348728,-0.015963377,217.20001,35.4,-31.500002,41.2,-128.91751,0.0,1,0,0,3.6855116,3.0761425,false,0.0
52703,-0.011230469,-0.024902344,-1.0361328,0.004256901,-0.022348728,-0.015963377,217.20001,35.4,-31.500002,41.2,-128.91751,0.0,1,0,0,3.6855116,3.0761425,false,0.0
52703,-0.011230469,-0.024902344,-1.0361328,0.004256901,-0.022348728,-0.015963377,217.20001,35.4,-31.500002,41.2,-128.91751,0.0,1,0,0,3.6855116,3.0761425,false,0.0
52703,-0.011230469,-0.024902344,-1.0361328,0.004256901,-0.022348728,-0.015963377,217.20001,35.4,-31.500002,41.2,-128.91751,0.0,1,0,0,3.6855116,3.0761425,false,0.0
52703,-0.011230469,-0.024902344,-1.0361328,0.004256901,-0.022348728,-0.015963377,217.20001,35.4,-31.500002,41.2,-128.91751,0.0,1,0,0,3.6855116,3.0761425,false,0.0
52703,-0.011230469,-0.024902344,-1.0361328,0.004256901,-0.022348728,-0.015963377,217.20001,35.4,-31.500002,41.2,-128.91751,0.0,1,0,0,3.6855116,3.0761425,false,0.0
52703,-0.011230469,-0.024902344,-1.0361328,0.004256901,-0.022348728,-0.015963377,217.20001,35.4,-31.500002,41.2,-128.91751,0.0,1,0,0,3.6855116,3.0761425,false,0.0
52703,-0.011230469,-0.024902344,-1.0361328,0.004256901,-0.022348728,-0.015963377,217.20001,35.4,-31.500002,41.2,-128.91751,0.0,1,0,0,3.6855116,3.0761425,false,0.0
52704,-0.011230469,-0.024902344,-1.0361328,0.004256901,-0.022348728,-0.015963377,217.20001,35.4,-31.500002,41.2,-128.91751,0.0,1,0,0,3.6855116,3.0761425,false,0.0
52704,-0.011230469,-0.024902344,-1.0361328,0.004256901,-0.022348728,-0.015963377,217.20001,35.4,-31.500002,41.2,-128.91751,0.0,1,0,0,3.6855116,3.0761425,false,0.0
52704,-0.009765625,-0.020507812,-1.0371094,0.0031926755,-0.023412954,-0.015963377,215.40001,36.600002,-30.000002,41.24706,-128.91751,0.0,1,0,0,3.7030594,3.0820172,false,0.0
52747,-0.009765625,-0.020507812,-1.0371094,0.0031926755,-0.023412954,-0.015963377,215.40001,36.600002,-30.000002,41.24706,-128.91751,0.0,1,0,0,3.7030594,3.0820172,false,0.0
52747,-0.009765625,-0.020507812,-1.0371094,0.0031926755,-0.023412954,-0.015963377,215.40001,36.600002,-30.000002,41.24706,-128.91751,0.0,1,0,0,3.7030594,3.0820172,false,0.0
52747,-0.009765625,-0.020507812,-1.0371094,0.0031926755,-0.023412954,-0.015963377,215.40001,36.600002,-30.000002,41.24706,-128.91751,0.0,1,0,0,3.7030594,3.0820172,false,0.0
52747,-0.009765625,-0.020507812,-1.0371094,0.0031926755,-0.023412954,-0.015963377,215.40001,36.600002,-30.000002,41.24706,-128.91751,0.0,1,0,0,3.7030594,3.0820172,false,0.0
52747,-0.009765625,-0.020507812,-1.0371094,0.0031926755,-0.023412954,-0.015963377,215.40001,36.600002,-30.000002,41.24706,-128.91751,0.0,1,0,0,3.7030594,3.0820172,false,0.0
52747,-0.009765625,-0.020507812,-1.0371094,0.0031926755,-0.023412954,-0.015963377,215.40001,36.600002,-30.000002,41.24706,-128.91751,0.0,1,0,0,3.7030594,3.0820172,false,0.0
52747,-0.009765625,-0.020507812,-1.0371094,0.0031926755,-0.023412954,-0.015963377,215.40001,36.600002,-30.000002,41.24706,-128.91751,0.0,1,0,0,3.7030594,3.0820172,false,0.0
52747,-0.009765625,-0.020507812,-1.0371094,0.0031926755,-0.023412954,-0.015963377,215.40001,36.600002,-30.000002,41.24706,-128.91751,0.0,1,0,0,3.7030594,3.0820172,false,0.0
52747,-0.009765625,-0.020507812,-1.0371094,0.0031926755,-0.023412954,-0.015963377,215.40001,36.600002,-30.000002,41.24706,-128.91751,0.0,1,0,0,3.7030594,3.0820172,false,0.0
52747,-0.009765625,-0.020507812,-1.0371094,0.0031926755,-0.023412954,-0.015963377,215.40001,36.600002,-30.000002,41.24706,-128.91751,0.0,1,0,0,3.7030594,3.0820172,false,0.0
52747,-0.009765625,-0.020507812,-1.0371094,0.0031926755,-0.023412954,-0.015963377,215.40001,36.600002,-30.000002,41.24706,-128.91751,0.0,1,0,0,3.7030594,3.0820172,false,0.0
52747,-0.009765625,-0.020507812,-1.0371094,0.0031926755,-0.023412954,-0.015963377,215.40001,36.600002,-30.000002,41.24706,-128.91751,0.0,1,0,0,3.7030594,3.0820172,false,0.0
52747,-0.009765625,-0.020507812,-1.0371094,0.0031926755,-0.023412954,-0.015963377,215.40001,36.600002,-30.000002,41.24706,-128.91751,0.0,1,0,0,3.7030594,3.0820172,false,0.0
52747,-0.009765625,-0.020507812,-1.0371094,0.0031926755,-0.023412954,-0.015963377,215.40001,36.600002,-30.000002,41.24706,-128.91751,0.0,1,0,0,3.7030594,3.0820172,false,0.0
52747,-0.009765625,-0.020507812,-1.0371094,0.0031926755,-0.023412954,-0.015963377,215.40001,36.600002,-30.000002,41.24706,-128.91751,0.0,1,0,0,3.7030594,3.0820172,false,0.0
52747,-0.009765625,-0.020507812,-1.0371094,0.0031926755,-0.023412954,-0.015963377,215.40001,36.600002,-30.000002,41.24706,-128.91751,0.0,1,0,0,3.7030594,3.0820172,false,0.0
52747,-0.009765625,-0.020507812,-1.0371094,0.0031926755,-0.023412954,-0.015963377,215.40001,36.600002,-30.000002,41.24706,-128.91751,0.0,1,0,0,3.7030594,3.0820172,false,0.0
52747,-0.009765625,-0.020507812,-1.0371094,0.0031926755,-0.023412954,-0.015963377,215.40001,36.600002,-30.000002,41.24706,-128.91751,0.0,1,0,0,3.7030594,3.0820172,false,0.0
52747,-0.009765625,-0.020507812,-1.0371094,0.0031926755,-0.023412954,-0.015963377,215.40001,36.600002,-30.000002,41.24706,-128.91751,0.0,1,0,0,3.7030594,3.0820172,false,0.0
52748,-0.009765625,-0.020507812,-1.0371094,0.0031926755,-0.023412954,-0.015963377,215.40001,36.600002,-30.000002,41.24706,-128.91751,0.0,1,0,0,3.7030594,3.0820172,false,0.0
52748,-0.009765625,-0.020507812,-1.0371094,0.0031926755,-0.023412954,-0.015963377,215.40001,36.600002,-30.000002,41.24706,-128.91751,0.0,1,0,0,3.7030594,3.0820172,false,0.0
52748,-0.009765625,-0.020507812,-1.0371094,0.0031926755,-0.023412954,-0.015963377,215.40001,36.600002,-30.000002,41.24706,-128.91751,0.0,1,0,0,3.7030594,3.0820172,false,0.0
52748,-0.009765625,-0.020507812,-1.0371094,0.0031926755,-0.023412954,-0.015963377,215.40001,36.600002,-30.000002,41.24706,-128.91751,0.0,1,0,0,3.7030594,3.0820172,false,0.0
52748,-0.009765625,-0.020507812,-1.0371094,0.0031926755,-0.023412954,-0.015963377,215.40001,36.600002,-30.000002,41.24706,-128.91751,0.0,1,0,0,3.7030594,3.0820172,false,0.0
52748,-0.009765625,-0.020507812,-1.0371094,0.0031926755,-0.023412954,-0.015963377,215.40001,36.600002,-30.000002,41.24706,-128.91751,0.0,1,0,0,3.7030594,3.0820172,false,0.0
52755,-0.009765625,-0.020507812,-1.0371094,0.0031926755,-0.023412954,-0.015963377,215.40001,36.600002,-30.000002,41.24706,-128.91751,0.0,1,0,0,3.7030594,3.0820172,false,0.0
52756,-0.009765625,-0.020507812,-1.0371094,0.0031926755,-0.023412954,-0.015963377,215.40001,36.600002,-30.000002,41.24706,-128.91751,0.0,1,0,0,3.7030594,3.0820172,false,0.0
52756,-0.009765625,-0.020507812,-1.0371094,0.0031926755,-0.023412954,-0.015963377,215.40001,36.600002,-30.000002,41.24706,-128.91751,0.0,1,0,0,3.7030594,3.0820172,false,0.0
52756,-0.009765625,-0.020507812,-1.0371094,0.0031926755,-0.023412954,-0.015963377,215.40001,36.600002,-30.000002,41.24706,-128.91751,0.0,1,0,0,3.7030594,3.0820172,false,0.0
52756,-0.009765625,-0.020507812,-1.0371094,0.0031926755,-0.023412954,-0.015963377,215.40001,36.600002,-30.000002,41.24706,-128.91751,0.0,1,0,0,3.7030594,3.0820172,false,0.0
52756,-0.009765625,-0.020507812,-1.0371094,0.0031926755,-0.023412954,-0.015963377,215.40001,36.600002,-30.000002,41.24706,-128.91751,0.0,1,0,0,3.7030594,3.0820172,false,0.0
52756,-0.009765625,-0.020507812,-1.0371094,0.0031926755,-0.023412954,-0.015963377,215.40001,36.600002,-30.000002,41.24706,-128.91751,0.0,1,0,0,3.7030594,3.0820172,false,0.0
52756,-0.009765625,-0.020507812,-1.0371094,0.0031926755,-0.023412954,-0.015963377,215.40001,36.600002,-30.000002,41.24706,-128.91751,0.0,1,0,0,3.7030594,3.0820172,false,0.0
52756,-0.009765625,-0.020507812,-1.0371094,0.0031926755,-0.023412954,-0.015963377,215.40001,36.600002,-30.000002,41.24706,-128.91751,0.0,1,0,0,3.7030594,3.0820172,false,0.0
52756,-0.009765625,-0.020507812,-1.0371094,0.0031926755,-0.023412954,-0.015963377,215.40001,36.600002,-30.000002,41.24706,-128.91751,0.0,1,0,0,3.7030594,3.0820172,false,0.0
52756,-0.009765625,-0.020507812,-1.0371094,0.0031926755,-0.023412954,-0.015963377,215.40001,36.600002,-30.000002,41.24706,-128.91751,0.0,1,0,0,3.7030594,3.0820172,false,0.0
52756,-0.009765625,-0.020507812,-1.0371094,0.0031926755,-0.023412954,-0.015963377,215.40001,36.600002,-30.000002,41.24706,-128.91751,0.0,1,0,0,3.7030594,3.0820172,false,0.0
52756,-0.009765625,-0.020507812,-1.0371094,0.0031926755,-0.023412954,-0.015963377,215.40001,36.600002,-30.000002,41.24706,-128.91751,0.0,1,0,0,3.7030594,3.0820172,false,0.0
52756,-0.009765625,-0.020507812,-1.0371094,0.0031926755,-0.023412954,-0.015963377,215.40001,36.600002,-30.000002,41.24706,-128.91751,0.0,1,0,0,3.7030594,3.0820172,false,0.0
52756,-0.009765625,-0.020507812,-1.0371094,0.0031926755,-0.023412954,-0.015963377,215.40001,36.600002,-30.000002,41.24706,-128.91751,0.0,1,0,0,3.7030594,3.0820172,false,0.0
52756,-0.009765625,-0.020507812,-1.0371094,0.0031926755,-0.023412954,-0.015963377,215.40001,36.600002,-30.000002,41.24706,-128.91751,0.0,1,0,0,3.7030594,3.0820172,false,0.0
52756,-0.009765625,-0.020507812,-1.0371094,0.0031926755,-0.023412954,-0.015963377,215.40001,36.600002,-30.000002,41.24706,-128.91751,0.0,1,0,0,3.7030594,3.0820172,false,0.0
52756,-0.0087890625,-0.021972656,-1.0366211,0.004256901,-0.024477178,-0.014899152,217.20001,38.4,-32.4,41.24706,-128.91751,0.0,1,0,0,3.7030594,3.0761425,false,0.0
52799,-0.0087890625,-0.021972656,-1.0366211,0.004256901,-0.024477178,-0.014899152,217.20001,38.4,-32.4,41.24706,-128.91751,0.0,1,0,0,3.7030594,3.0761425,false,0.0
52799,-0.0087890625,-0.021972656,-1.0366211,0.004256901,-0.024477178,-0.014899152,217.20001,38.4,-32.4,41.24706,-128.91751,0.0,1,0,0,3.7030594,3.0761425,false,0.0
52799,-0.0087890625,-0.021972656,-1.0366211,0.004256901,-0.024477178,-0.014899152,217.20001,38.4,-32.4,41.24706,-128.91751,0.0,1,0,0,3.7030594,3.0761425,false,0.0
52799,-0.0087890625,-0.021972656,-1.0366211,0.004256901,-0.024477178,-0.014899152,217.20001,38.4,-32.4,41.24706,-128.91751,0.0,1,0,0,3.7030594,3.0761425,false,0.0
52799,-0.0087890625,-0.021972656,-1.0366211,0.004256901,-0.024477178,-0.014899152,217.20001,38.4,-32.4,41.24706,-128.91751,0.0,1,0,0,3.7030594,3.0761425,false,0.0
52799,-0.0087890625,-0.021972656,-1.0366211,0.004256901,-0.024477178,-0.014899152,217.20001,38.4,-32.4,41.24706,-128.91751,0.0,1,0,0,3.7030594,3.0761425,false,0.0
52799,-0.0087890625,-0.021972656,-1.0366211,0.004256901,-0.024477178,-0.014899152,217.20001,38.4,-32.4,41.24706,-128.91751,0.0,1,0,0,3.7030594,3.0761425,false,0.0
52799,-0.0087890625,-0.021972656,-1.0366211,0.004256901,-0.024477178,-0.014899152,217.20001,38.4,-32.4,41.24706,-128.91751,0.0,1,0,0,3.7030594,3.0761425,false,0.0
52799,-0.0087890625,-0.021972656,-1.0366211,0.004256901,-0.024477178,-0.014899152,217.20001,38.4,-32.4,41.24706,-128.91751,0.0,1,0,0,3.7030594,3.0761425,false,0.0
52799,-0.0087890625,-0.021972656,-1.0366211,0.004256901,-0.024477178,-0.014899152,217.20001,38.4,-32.4,41.24706,-128.91751,0.0,1,0,0,3.7030594,3.0761425,false,0.0
52799,-0.0087890625,-0.021972656,-1.0366211,0.004256901,-0.024477178,-0.014899152,217.20001,38.4,-32.4,41.24706,-128.91751,0.0,1,0,0,3.7030594,3.0761425,false,0.0
52799,-0.0087890625,-0.021972656,-1.0366211,0.004256901,-0.024477178,-0.014899152,217.20001,38.4,-32.4,41.24706,-128.91751,0.0,1,0,0,3.7030594,3.0761425,false,0.0
52799,-0.0087890625,-0.021972656,-1.0366211,0.004256901,-0.024477178,-0.014899152,217.20001,38.4,-32.4,41.24706,-128.91751,0.0,1,0,0,3.7030594,3.0761425,false,0.0
52799,-0.0087890625,-0.021972656,-1.0366211,0.004256901,-0.024477178,-0.014899152,217.20001,38.4,-32.4,41.24706,-128.91751,0.0,1,0,0,3.7030594,3.0761425,false,0.0
52799,-0.0087890625,-0.021972656,-1.0366211,0.004256901,-0.024477178,-0.014899152,217.20001,38.4,-32.4,41.24706,-128.91751,0.0,1,0,0,3.7030594,3.0761425,false,0.0
52799,-0.0087890625,-0.021972656,-1.0366211,0.004256901,-0.024477178,-0.014899152,217.20001,38.4,-32.4,41.24706,-128.91751,0.0,1,0,0,3.7030594,3.0761425,false,0.0
52799,-0.0087890625,-0.021972656,-1.0366211,0.004256901,-0.024477178,-0.014899152,217.20001,38.4,-32.4,41.24706,-128.91751,0.0,1,0,0,3.7030594,3.0761425,false,0.0
52799,-0.0087890625,-0.021972656,-1.0366211,0.004256901,-0.024477178,-0.014899152,217.20001,38.4,-32.4,41.24706,-128.91751,0.0,1,0,0,3.7030594,3.0761425,false,0.0
52799,-0.0087890625,-0.021972656,-1.0366211,0.004256901,-0.024477178,-0.014899152,217.20001,38.4,-32.4,41.24706,-128.91751,0.0,1,0,0,3.7030594,3.0761425,false,0.0
52800,-0.0087890625,-0.021972656,-1.0366211,0.004256901,-0.024477178,-0.014899152,217.20001,38.4,-32.4,41.24706,-128.91751,0.0,1,0,0,3.7030594,3.0761425,false,0.0
52800,-0.0087890625,-0.021972656,-1.0366211,0.004256901,-0.024477178,-0.014899152,217.20001,38.4,-32.4,41.24706,-128.91751,0.0,1,0,0,3.7030594,3.0761425,false,0.0
52800,-0.0087890625,-0.021972656,-1.0366211,0.004256901,-0.024477178,-0.014899152,217.20001,38.4,-32.4,41.24706,-128.91751,0.0,1,0,0,3.7030594,3.0761425,false,0.0
52800,-0.0087890625,-0.021972656,-1.0366211,0.004256901,-0.024477178,-0.014899152,217.20001,38.4,-32.4,41.24706,-128.91751,0.0,1,0,0,3.7030594,3.0761425,false,0.0
52800,-0.0087890625,-0.021972656,-1.0366211,0.004256901,-0.024477178,-0.014899152,217.20001,38.4,-32.4,41.24706,-128.91751,0.0,1,0,0,3.7030594,3.0761425,false,0.0
52800,-0.0087890625,-0.021972656,-1.0366211,0.004256901,-0.024477178,-0.014899152,217.20001,38.4,-32.4,41.24706,-128.91751,0.0,1,0,0,3.7030594,3.0761425,false,0.0
52800,-0.0087890625,-0.021972656,-1.0366211,0.004256901,-0.024477178,-0.014899152,217.20001,38.4,-32.4,41.24706,-128.91751,0.0,1,0,0,3.7030594,3.0761425,false,0.0
52800,-0.0087890625,-0.021972656,-1.0366211,0.004256901,-0.024477178,-0.014899152,217.20001,38.4,-32.4,41.24706,-128.91751,0.0,1,0,0,3.7030594,3.0761425,false,0.0
52800,-0.0087890625,-0.021972656,-1.0366211,0.004256901,-0.024477178,-0.014899152,217.20001,38.4,-32.4,41.24706,-128.91751,0.0,1,0,0,3.7030594,3.0761425,false,0.0
52800,-0.0087890625,-0.021972656,-1.0366211,0.004256901,-0.024477178,-0.014899152,217.20001,38.4,-32.4,41.24706,-128.91751,0.0,1,0,0,3.7030594,3.0761425,false,0.0
52800,-0.0087890625,-0.021972656,-1.0366211,0.004256901,-0.024477178,-0.014899152,217.20001,38.4,-32.4,41.24706,-128.91751,0.0,1,0,0,3.7030594,3.0761425,false,0.0
52800,-0.0087890625,-0.021972656,-1.0366211,0.004256901,-0.024477178,-0.014899152,217.20001,38.4,-32.4,41.24706,-128.91751,0.0,1,0,0,3.7030594,3.0761425,false,0.0
52800,-0.0087890625,-0.021972656,-1.0366211,0.004256901,-0.024477178,-0.014899152,217.20001,38.4,-32.4,41.24706,-128.91751,0.0,1,0,0,3.7030594,3.0761425,false,0.0
52800,-0.0087890625,-0.021972656,-1.0366211,0.004256901,-0.024477178,-0.014899152,217.20001,38.4,-32.4,41.24706,-128.91751,0.0,1,0,0,3.7030594,3.0761425,false,0.0
52800,-0.0087890625,-0.021972656,-1.0366211,0.004256901,-0.024477178,-0.014899152,217.20001,38.4,-32.4,41.24706,-128.91751,0.0,1,0,0,3.7030594,3.0761425,false,0.0
52800,-0.0087890625,-0.021972656,-1.0366211,0.004256901,-0.024477178,-0.014899152,217.20001,38.4,-32.4,41.24706,-128.91751,0.0,1,0,0,3.7030594,3.0761425,false,0.0
52800,-0.0087890625,-0.021972656,-1.0366211,0.004256901,-0.024477178,-0.014899152,217.20001,38.4,-32.4,41.24706,-128.91751,0.0,1,0,0,3.7030594,3.0761425,false,0.0
52800,-0.0087890625,-0.021972656,-1.0366211,0.004256901,-0.024477178,-0.014899152,217.20001,38.4,-32.4,41.24706,-128.91751,0.0,1,0,0,3.7030594,3.0761425,false,0.0
52800,-0.0087890625,-0.021972656,-1.0366211,0.004256901,-0.024477178,-0.014899152,217.20001,38.4,-32.4,41.24706,-128.91751,0.0,1,0,0,3.7030594,3.0761425,false,0.0
52800,-0.0087890625,-0.021972656,-1.0366211,0.004256901,-0.024477178,-0.014899152,217.20001,38.4,-32.4,41.24706,-128.91751,0.0,1,0,0,3.7030594,3.0761425,false,0.0
52800,-0.0087890625,-0.021972656,-1.0366211,0.004256901,-0.024477178,-0.014899152,217.20001,38.4,-32.4,41.24706,-128.91751,0.0,1,0,0,3.7030594,3.0761425,false,0.0
52800,-0.0087890625,-0.021972656,-1.0366211,0.004256901,-0.024477178,-0.014899152,217.20001,38.4,-32.4,41.24706,-128.91751,0.0,1,0,0,3.7030594,3.0761425,false,0.0
52800,-0.0087890625,-0.021972656,-1.0366211,0.004256901,-0.024477178,-0.014899152,217.20001,38.4,-32.4,41.24706,-128.91751,0.0,1,0,0,3.7030594,3.0761425,false,0.0
52800,-0.0078125,-0.020019531,-1.0336914,0.006385351,-0.025541404,-0.015963377,216.00002,37.800003,-32.7,41.22647,-128.91751,0.0,1,0,0,3.7030594,3.0761425,false,0.0
52854,-0.0078125,-0.020019531,-1.0336914,0.006385351,-0.025541404,-0.015963377,216.00002,37.800003,-32.7,41.22647,-128.91751,0.0,1,0,0,3.7030594,3.0761425,false,0.0
52855,-0.0078125,-0.020019531,-1.0336914,0.006385351,-0.025541404,-0.015963377,216.00002,37.800003,-32.7,41.22647,-128.91751,0.0,1,0,0,3.7030594,3.0761425,false,0.0
52855,-0.0078125,-0.020019531,-1.0336914,0.006385351,-0.025541404,-0.015963377,216.00002,37.800003,-32.7,41.22647,-128.91751,0.0,1,0,0,3.7030594,3.0761425,false,0.0
52855,-0.0078125,-0.020019531,-1.0336914,0.006385351,-0.025541404,-0.015963377,216.00002,37.800003,-32.7,41.22647,-128.91751,0.0,1,0,0,3.7030594,3.0761425,false,0.0
52855,-0.0078125,-0.020019531,-1.0336914,0.006385351,-0.025541404,-0.015963377,216.00002,37.800003,-32.7,41.22647,-128.91751,0.0,1,0,0,3.7030594,3.0761425,false,0.0
52856,-0.0078125,-0.020019531,-1.0336914,0.006385351,-0.025541404,-0.015963377,216.00002,37.800003,-32.7,41.22647,-128.91751,0.0,1,0,0,3.7030594,3.0761425,false,0.0
52856,-0.0078125,-0.020019531,-1.0336914,0.006385351,-0.025541404,-0.015963377,216.00002,37.800003,-32.7,41.22647,-128.91751,0.0,1,0,0,3.7030594,3.0761425,false,0.0
52856,-0.0078125,-0.020019531,-1.0336914,0.006385351,-0.025541404,-0.015963377,216.00002,37.800003,-32.7,41.22647,-128.91751,0.0,1,0,0,3.7030594,3.0761425,false,0.0
52856,-0.0078125,-0.020019531,-1.0336914,0.006385351,-0.025541404,-0.015963377,216.00002,37.800003,-32.7,41.22647,-128.91751,0.0,1,0,0,3.7030594,3.0761425,false,0.0
52856,-0.0078125,-0.020019531,-1.0336914,0.006385351,-0.025541404,-0.015963377,216.00002,37.800003,-32.7,41.22647,-128.91751,0.0,1,0,0,3.7030594,3.0761425,false,0.0
52856,-0.0078125,-0.020019531,-1.0336914,0.006385351,-0.025541404,-0.015963377,216.00002,37.800003,-32.7,41.22647,-128.91751,0.0,1,0,0,3.7030594,3.0761425,false,0.0
52856,-0.0078125,-0.020019531,-1.0336914,0.006385351,-0.025541404,-0.015963377,216.00002,37.800003,-32.7,41.22647,-128.91751,0.0,1,0,0,3.7030594,3.0761425,false,0.0
52856,-0.0078125,-0.020019531,-1.0336914,0.006385351,-0.025541404,-0.015963377,216.00002,37.800003,-32.7,41.22647,-128.91751,0.0,1,0,0,3.7030594,3.0761425,false,0.0
52856,-0.0078125,-0.020019531,-1.0336914,0.006385351,-0.025541404,-0.015963377,216.00002,37.800003,-32.7,41.22647,-128.91751,0.0,1,0,0,3.7030594,3.0761425,false,0.0
52856,-0.0078125,-0.020019531,-1.0336914,0.006385351,-0.025541404,-0.015963377,216.00002,37.800003,-32.7,41.22647,-128.91751,0.0,1,0,0,3.7030594,3.0761425,false,0.0
52856,-0.0078125,-0.020019531,-1.0336914,0.006385351,-0.025541404,-0.015963377,216.00002,37.800003,-32.7,41.22647,-128.91751,0.0,1,0,0,3.7030594,3.0761425,false,0.0
52856,-0.0078125,-0.020019531,-1.0336914,0.006385351,-0.025541404,-0.015963377,216.00002,37.800003,-32.7,41.22647,-128.91751,0.0,1,0,0,3.7030594,3.0761425,false,0.0
52856,-0.0078125,-0.020019531,-1.0336914,0.006385351,-0.025541404,-0.015963377,216.00002,37.800003,-32.7,41.22647,-128.91751,0.0,1,0,0,3.7030594,3.0761425,false,0.0
52856,-0.0078125,-0.020019531,-1.0336914,0.006385351,-0.025541404,-0.015963377,216.00002,37.800003,-32.7,41.22647,-128.91751,0.0,1,0,0,3.7030594,3.0761425,false,0.0
52856,-0.0078125,-0.020019531,-1.0336914,0.006385351,-0.025541404,-0.015963377,216.00002,37.800003,-32.7,41.22647,-128.91751,0.0,1,0,0,3.7030594,3.0761425,false,0.0
52856,-0.0078125,-0.020019531,-1.0336914,0.006385351,-0.025541404,-0.015963377,216.00002,37.800003,-32.7,41.22647,-128.91751,0.0,1,0,0,3.7030594,3.0761425,false,0.0
52856,-0.0078125,-0.020019531,-1.0336914,0.006385351,-0.025541404,-0.015963377,216.00002,37.800003,-32.7,41.22647,-128.91751,0.0,1,0,0,3.7030594,3.0761425,false,0.0
52856,-0.0078125,-0.020019531,-1.0336914,0.006385351,-0.025541404,-0.015963377,216.00002,37.800003,-32.7,41.22647,-128.91751,0.0,1,0,0,3.7030594,3.0761425,false,0.0
52856,-0.0078125,-0.020019531,-1.0336914,0.006385351,-0.025541404,-0.015963377,216.00002,37.800003,-32.7,41.22647,-128.91751,0.0,1,0,0,3.7030594,3.0761425,false,0.0
52856,-0.0078125,-0.020019531,-1.0336914,0.006385351,-0.025541404,-0.015963377,216.00002,37.800003,-32.7,41.22647,-128.91751,0.0,1,0,0,3.7030594,3.0761425,false,0.0
52856,-0.0078125,-0.020019531,-1.0336914,0.006385351,-0.025541404,-0.015963377,216.00002,37.800003,-32.7,41.22647,-128.91751,0.0,1,0,0,3.7030594,3.0761425,false,0.0
52856,-0.0078125,-0.020019531,-1.0336914,0.006385351,-0.025541404,-0.015963377,216.00002,37.800003,-32.7,41.22647,-128.91751,0.0,1,0,0,3.7030594,3.0761425,false,0.0
52856,-0.0078125,-0.020019531,-1.0336914,0.006385351,-0.025541404,-0.015963377,216.00002,37.800003,-32.7,41.22647,-128.91751,0.0,1,0,0,3.7030594,3.0761425,false,0.0
52856,-0.0078125,-0.020019531,-1.0336914,0.006385351,-0.025541404,-0.015963377,216.00002,37.800003,-32.7,41.22647,-128.91751,0.0,1,0,0,3.7030594,3.0761425,false,0.0
52856,-0.0078125,-0.020019531,-1.0336914,0.006385351,-0.025541404,-0.015963377,216.00002,37.800003,-32.7,41.22647,-128.91751,0.0,1,0,0,3.7030594,3.0761425,false,0.0
52856,-0.0078125,-0.020019531,-1.0336914,0.006385351,-0.025541404,-0.015963377,216.00002,37.800003,-32.7,41.22647,-128.91751,0.0,1,0,0,3.7030594,3.0761425,false,0.0
52856,-0.0078125,-0.020019531,-1.0336914,0.006385351,-0.025541404,-0.015963377,216.00002,37.800003,-32.7,41.22647,-128.91751,0.0,1,0,0,3.7030594,3.0761425,false,0.0
52856,-0.0078125,-0.020019531,-1.0336914,0.006385351,-0.025541404,-0.015963377,216.00002,37.800003,-32.7,41.22647,-128.91751,0.0,1,0,0,3.7030594,3.0761425,false,0.0
52857,-0.0078125,-0.020019531,-1.0336914,0.006385351,-0.025541404,-0.015963377,216.00002,37.800003,-32.7,41.22647,-128.91751,0.0,1,0,0,3.7030594,3.0761425,false,0.0
52857,-0.0078125,-0.020019531,-1.0336914,0.006385351,-0.025541404,-0.015963377,216.00002,37.800003,-32.7,41.22647,-128.91751,0.0,1,0,0,3.7030594,3.0761425,false,0.0
52857,-0.0078125,-0.020019531,-1.0336914,0.006385351,-0.025541404,-0.015963377,216.00002,37.800003,-32.7,41.22647,-128.91751,0.0,1,0,0,3.7030594,3.0761425,false,0.0
52857,-0.0078125,-0.020019531,-1.0336914,0.006385351,-0.025541404,-0.015963377,216.00002,37.800003,-32.7,41.22647,-128.91751,0.0,1,0,0,3.7030594,3.0761425,false,0.0
52857,-0.0078125,-0.020019531,-1.0336914,0.006385351,-0.025541404,-0.015963377,216.00002,37.800003,-32.7,41.22647,-128.91751,0.0,1,0,0,3.7030594,3.0761425,false,0.0
52857,-0.0078125,-0.020019531,-1.0336914,0.006385351,-0.025541404,-0.015963377,216.00002,37.800003,-32.7,41.22647,-128.91751,0.0,1,0,0,3.7030594,3.0761425,false,0.0
52857,-0.0078125,-0.020019531,-1.0336914,0.006385351,-0.025541404,-0.015963377,216.00002,37.800003,-32.7,41.22647,-128.91751,0.0,1,0,0,3.7030594,3.0761425,false,0.0
52857,-0.0078125,-0.020019531,-1.0336914,0.006385351,-0.025541404,-0.015963377,216.00002,37.800003,-32.7,41.22647,-128.91751,0.0,1,0,0,3.7030594,3.0761425,false,0.0
52857,-0.0078125,-0.020019531,-1.0336914,0.006385351,-0.025541404,-0.015963377,216.00002,37.800003,-32.7,41.22647,-128.91751,0.0,1,0,0,3.7030594,3.0761425,false,0.0
52857,-0.015136719,-0.021484375,-1.0410156,0.0010642252,-0.023412954,-0.014899152,216.6,36.600002,-31.800001,41.214706,-128.91751,0.0,1,0,0,3.708934,3.0761425,false,0.0
52895,-0.015136719,-0.021484375,-1.0410156,0.0010642252,-0.023412954,-0.014899152,216.6,36.600002,-31.800001,41.214706,-128.91751,0.0,1,0,0,3.708934,3.0761425,false,0.0
52895,-0.015136719,-0.021484375,-1.0410156,0.0010642252,-0.023412954,-0.014899152,216.6,36.600002,-31.800001,41.214706,-128.91751,0.0,1,0,0,3.708934,3.0761425,false,0.0
52895,-0.015136719,-0.021484375,-1.0410156,0.0010642252,-0.023412954,-0.014899152,216.6,36.600002,-31.800001,41.214706,-128.91751,0.0,1,0,0,3.708934,3.0761425,false,0.0
52895,-0.015136719,-0.021484375,-1.0410156,0.0010642252,-0.023412954,-0.014899152,216.6,36.600002,-31.800001,41.214706,-128.91751,0.0,1,0,0,3.708934,3.0761425,false,0.0
52895,-0.015136719,-0.021484375,-1.0410156,0.0010642252,-0.023412954,-0.014899152,216.6,36.600002,-31.800001,41.214706,-128.91751,0.0,1,0,0,3.708934,3.0761425,false,0.0
52895,-0.015136719,-0.021484375,-1.0410156,0.0010642252,-0.023412954,-0.014899152,216.6,36.600002,-31.800001,41.214706,-128.91751,0.0,1,0,0,3.708934,3.0761425,false,0.0
52895,-0.015136719,-0.021484375,-1.0410156,0.0010642252,-0.023412954,-0.014899152,216.6,36.600002,-31.800001,41.214706,-128.91751,0.0,1,0,0,3.708934,3.0761425,false,0.0
52895,-0.015136719,-0.021484375,-1.0410156,0.0010642252,-0.023412954,-0.014899152,216.6,36.600002,-31.800001,41.214706,-128.91751,0.0,1,0,0,3.708934,3.0761425,false,0.0
52895,-0.015136719,-0.021484375,-1.0410156,0.0010642252,-0.023412954,-0.014899152,216.6,36.600002,-31.800001,41.214706,-128.91751,0.0,1,0,0,3.708934,3.0761425,false,0.0
52895,-0.015136719,-0.021484375,-1.0410156,0.0010642252,-0.023412954,-0.014899152,216.6,36.600002,-31.800001,41.214706,-128.91751,0.0,1,0,0,3.708934,3.0761425,false,0.0
52895,-0.015136719,-0.021484375,-1.0410156,0.0010642252,-0.023412954,-0.014899152,216.6,36.600002,-31.800001,41.214706,-128.91751,0.0,1,0,0,3.708934,3.0761425,false,0.0
52895,-0.015136719,-0.021484375,-1.0410156,0.0010642252,-0.023412954,-0.014899152,216.6,36.600002,-31.800001,41.214706,-128.91751,0.0,1,0,0,3.708934,3.0761425,false,0.0
52895,-0.015136719,-0.021484375,-1.0410156,0.0010642252,-0.023412954,-0.014899152,216.6,36.600002,-31.800001,41.214706,-128.91751,0.0,1,0,0,3.708934,3.0761425,false,0.0
52896,-0.015136719,-0.021484375,-1.0410156,0.0010642252,-0.023412954,-0.014899152,216.6,36.600002,-31.800001,41.214706,-128.91751,0.0,1,0,0,3.708934,3.0761425,false,0.0
52896,-0.015136719,-0.021484375,-1.0410156,0.0010642252,-0.023412954,-0.014899152,216.6,36.600002,-31.800001,41.214706,-128.91751,0.0,1,0,0,3.708934,3.0761425,false,0.0
52896,-0.015136719,-0.021484375,-1.0410156,0.0010642252,-0.023412954,-0.014899152,216.6,36.600002,-31.800001,41.214706,-128.91751,0.0,1,0,0,3.708934,3.0761425,false,0.0
52896,-0.015136719,-0.021484375,-1.0410156,0.0010642252,-0.023412954,-0.014899152,216.6,36.600002,-31.800001,41.214706,-128.91751,0.0,1,0,0,3.708934,3.0761425,false,0.0
52896,-0.015136719,-0.021484375,-1.0410156,0.0010642252,-0.023412954,-0.014899152,216.6,36.600002,-31.800001,41.214706,-128.91751,0.0,1,0,0,3.708934,3.0761425,false,0.0
52896,-0.015136719,-0.021484375,-1.0410156,0.0010642252,-0.023412954,-0.014899152,216.6,36.600002,-31.800001,41.214706,-128.91751,0.0,1,0,0,3.708934,3.0761425,false,0.0
52896,-0.015136719,-0.021484375,-1.0410156,0.0010642252,-0.023412954,-0.014899152,216.6,36.600002,-31.800001,41.214706,-128.91751,0.0,1,0,0,3.708934,3.0761425,false,0.0
52896,-0.015136719,-0.021484375,-1.0410156,0.0010642252,-0.023412954,-0.014899152,216.6,36.600002,-31.800001,41.214706,-128.91751,0.0,1,0,0,3.708934,3.0761425,false,0.0
52896,-0.015136719,-0.021484375,-1.0410156,0.0010642252,-0.023412954,-0.014899152,216.6,36.600002,-31.800001,41.214706,-128.91751,0.0,1,0,0,3.708934,3.0761425,false,0.0
52896,-0.015136719,-0.021484375,-1.0410156,0.0010642252,-0.023412954,-0.014899152,216.6,36.600002,-31.800001,41.214706,-128.91751,0.0,1,0,0,3.708934,3.0761425,false,0.0
52896,-0.015136719,-0.021484375,-1.0410156,0.0010642252,-0.023412954,-0.014899152,216.6,36.600002,-31.800001,41.214706,-128.91751,0.0,1,0,0,3.708934,3.0761425,false,0.0
52909,-0.015136719,-0.021484375,-1.0410156,0.0010642252,-0.023412954,-0.014899152,216.6,36.600002,-31.800001,41.214706,-128.91751,0.0,1,0,0,3.708934,3.0761425,false,0.0
52909,-0.015136719,-0.021484375,-1.0410156,0.0010642252,-0.023412954,-0.014899152,216.6,36.600002,-31.800001,41.214706,-128.91751,0.0,1,0,0,3.708934,3.0761425,false,0.0
52909,-0.015136719,-0.021484375,-1.0410156,0.0010642252,-0.023412954,-0.014899152,216.6,36.600002,-31.800001,41.214706,-128.91751,0.0,1,0,0,3.708934,3.0761425,false,0.0
52909,-0.015136719,-0.021484375,-1.0410156,0.0010642252,-0.023412954,-0.014899152,216.6,36.600002,-31.800001,41.214706,-128.91751,0.0,1,0,0,3.708934,3.0761425,false,0.0
52909,-0.015136719,-0.021484375,-1.0410156,0.0010642252,-0.023412954,-0.014899152,216.6,36.600002,-31.800001,41.214706,-128.91751,0.0,1,0,0,3.708934,3.0761425,false,0.0
52909,-0.015136719,-0.021484375,-1.0410156,0.0010642252,-0.023412954,-0.014899152,216.6,36.600002,-31.800001,41.214706,-128.91751,0.0,1,0,0,3.708934,3.0761425,false,0.0
52909,-0.015136719,-0.021484375,-1.0410156,0.0010642252,-0.023412954,-0.014899152,216.6,36.600002,-31.800001,41.214706,-128.91751,0.0,1,0,0,3.708934,3.0761425,false,0.0
52910,-0.015136719,-0.021484375,-1.0410156,0.0010642252,-0.023412954,-0.014899152,216.6,36.600002,-31.800001,41.214706,-128.91751,0.0,1,0,0,3.708934,3.0761425,false,0.0
52910,-0.015136719,-0.021484375,-1.0410156,0.0010642252,-0.023412954,-0.014899152,216.6,36.600002,-31.800001,41.214706,-128.91751,0.0,1,0,0,3.708934,3.0761425,false,0.0
52910,-0.015136719,-0.021484375,-1.0410156,0.0010642252,-0.023412954,-0.014899152,216.6,36.600002,-31.800001,41.214706,-128.91751,0.0,1,0,0,3.708934,3.0761425,false,0.0
52910,-0.015136719,-0.021484375,-1.0410156,0.0010642252,-0.023412954,-0.014899152,216.6,36.600002,-31.800001,41.214706,-128.91751,0.0,1,0,0,3.708934,3.0761425,false,0.0
52910,-0.015136719,-0.021484375,-1.0410156,0.0010642252,-0.023412954,-0.014899152,216.6,36.600002,-31.800001,41.214706,-128.91751,0.0,1,0,0,3.708934,3.0761425,false,0.0
52910,-0.015136719,-0.021484375,-1.0410156,0.0010642252,-0.023412954,-0.014899152,216.6,36.600002,-31.800001,41.214706,-128.91751,0.0,1,0,0,3.708934,3.0761425,false,0.0
52910,-0.015136719,-0.021484375,-1.0410156,0.0010642252,-0.023412954,-0.014899152,216.6,36.600002,-31.800001,41.214706,-128.91751,0.0,1,0,0,3.708934,3.0761425,false,0.0
52911,-0.015136719,-0.021484375,-1.0410156,0.0010642252,-0.023412954,-0.014899152,216.6,36.600002,-31.800001,41.214706,-128.91751,0.0,1,0,0,3.708934,3.0761425,false,0.0
52911,-0.015136719,-0.021484375,-1.0410156,0.0010642252,-0.023412954,-0.014899152,216.6,36.600002,-31.800001,41.214706,-128.91751,0.0,1,0,0,3.708934,3.0761425,false,0.0
52911,-0.015136719,-0.021484375,-1.0410156,0.0010642252,-0.023412954,-0.014899152,216.6,36.600002,-31.800001,41.214706,-128.91751,0.0,1,0,0,3.708934,3.0761425,false,0.0
52911,-0.015136719,-0.021484375,-1.0410156,0.0010642252,-0.023412954,-0.014899152,216.6,36.600002,-31.800001,41.214706,-128.91751,0.0,1,0,0,3.708934,3.0761425,false,0.0
52911,-0.013671875,-0.021972656,-1.0336914,0.006385351,-0.021284504,-0.020220278,218.1,35.100002,-31.800001,41.235294,-128.91751,0.0,1,0,0,3.697261,3.0820172,false,0.0
52955,-0.013671875,-0.021972656,-1.0336914,0.006385351,-0.021284504,-0.020220278,218.1,35.100002,-31.800001,41.235294,-128.91751,0.0,1,0,0,3.697261,3.0820172,false,0.0
52955,-0.013671875,-0.021972656,-1.0336914,0.006385351,-0.021284504,-0.020220278,218.1,35.100002,-31.800001,41.235294,-128.91751,0.0,1,0,0,3.697261,3.0820172,false,0.0
52955,-0.013671875,-0.021972656,-1.0336914,0.006385351,-0.021284504,-0.020220278,218.1,35.100002,-31.800001,41.235294,-128.91751,0.0,1,0,0,3.697261,3.0820172,false,0.0
52955,-0.013671875,-0.021972656,-1.0336914,0.006385351,-0.021284504,-0.020220278,218.1,35.100002,-31.800001,41.235294,-128.91751,0.0,1,0,0,3.697261,3.0820172,false,0.0
52955,-0.013671875,-0.021972656,-1.0336914,0.006385351,-0.021284504,-0.020220278,218.1,35.100002,-31.800001,41.235294,-128.91751,0.0,1,0,0,3.697261,3.0820172,false,0.0
52955,-0.013671875,-0.021972656,-1.0336914,0.006385351,-0.021284504,-0.020220278,218.1,35.100002,-31.800001,41.235294,-128.91751,0.0,1,0,0,3.697261,3.0820172,false,0.0
52955,-0.013671875,-0.021972656,-1.0336914,0.006385351,-0.021284504,-0.020220278,218.1,35.100002,-31.800001,41.235294,-128.91751,0.0,1,0,0,3.697261,3.0820172,false,0.0
52955,-0.013671875,-0.021972656,-1.0336914,0.006385351,-0.021284504,-0.020220278,218.1,35.100002,-31.800001,41.235294,-128.91751,0.0,1,0,0,3.697261,3.0820172,false,0.0
52955,-0.013671875,-0.021972656,-1.0336914,0.006385351,-0.021284504,-0.020220278,218.1,35.100002,-31.800001,41.235294,-128.91751,0.0,1,0,0,3.697261,3.0820172,false,0.0
52956,-0.013671875,-0.021972656,-1.0336914,0.006385351,-0.021284504,-0.020220278,218.1,35.100002,-31.800001,41.235294,-128.91751,0.0,1,0,0,3.697261,3.0820172,false,0.0
52956,-0.013671875,-0.021972656,-1.0336914,0.006385351,-0.021284504,-0.020220278,218.1,35.100002,-31.800001,41.235294,-128.91751,0.0,1,0,0,3.697261,3.0820172,false,0.0
52956,-0.013671875,-0.021972656,-1.0336914,0.006385351,-0.021284504,-0.020220278,218.1,35.100002,-31.800001,41.235294,-128.91751,0.0,1,0,0,3.697261,3.0820172,false,0.0
52956,-0.013671875,-0.021972656,-1.0336914,0.006385351,-0.021284504,-0.020220278,218.1,35.100002,-31.800001,41.235294,-128.91751,0.0,1,0,0,3.697261,3.0820172,false,0.0
52956,-0.013671875,-0.021972656,-1.0336914,0.006385351,-0.021284504,-0.020220278,218.1,35.100002,-31.800001,41.235294,-128.91751,0.0,1,0,0,3.697261,3.0820172,false,0.0
52956,-0.013671875,-0.021972656,-1.0336914,0.006385351,-0.021284504,-0.020220278,218.1,35.100002,-31.800001,41.235294,-128.91751,0.0,1,0,0,3.697261,3.0820172,false,0.0
52956,-0.013671875,-0.021972656,-1.0336914,0.006385351,-0.021284504,-0.020220278,218.1,35.100002,-31.800001,41.235294,-128.91751,0.0,1,0,0,3.697261,3.0820172,false,0.0
52956,-0.013671875,-0.021972656,-1.0336914,0.006385351,-0.021284504,-0.020220278,218.1,35.100002,-31.800001,41.235294,-128.91751,0.0,1,0,0,3.697261,3.0820172,false,0.0
52956,-0.013671875,-0.021972656,-1.0336914,0.006385351,-0.021284504,-0.020220278,218.1,35.100002,-31.800001,41.235294,-128.91751,0.0,1,0,0,3.697261,3.0820172,false,0.0
52956,-0.013671875,-0.021972656,-1.0336914,0.006385351,-0.021284504,-0.020220278,218.1,35.100002,-31.800001,41.235294,-128.91751,0.0,1,0,0,3.697261,3.0820172,false,0.0
52956,-0.013671875,-0.021972656,-1.0336914,0.006385351,-0.021284504,-0.020220278,218.1,35.100002,-31.800001,41.235294,-128.91751,0.0,1,0,0,3.697261,3.0820172,false,0.0
52956,-0.013671875,-0.021972656,-1.0336914,0.006385351,-0.021284504,-0.020220278,218.1,35.100002,-31.800001,41.235294,-128.91751,0.0,1,0,0,3.697261,3.0820172,false,0.0
52956,-0.013671875,-0.021972656,-1.0336914,0.006385351,-0.021284504,-0.020220278,218.1,35.100002,-31.800001,41.235294,-128.91751,0.0,1,0,0,3.697261,3.0820172,false,0.0
52956,-0.013671875,-0.021972656,-1.0336914,0.006385351,-0.021284504,-0.020220278,218.1,35.100002,-31.800001,41.235294,-128.91751,0.0,1,0,0,3.697261,3.0820172,false,0.0
52956,-0.013671875,-0.021972656,-1.0336914,0.006385351,-0.021284504,-0.020220278,218.1,35.100002,-31.800001,41.235294,-128.91751,0.0,1,0,0,3.697261,3.0820172,false,0.0
52956,-0.013671875,-0.021972656,-1.0336914,0.006385351,-0.021284504,-0.020220278,218.1,35.100002,-31.800001,41.235294,-128.91751,0.0,1,0,0,3.697261,3.0820172,false,0.0
52956,-0.013671875,-0.021972656,-1.0336914,0.006385351,-0.021284504,-0.020220278,218.1,35.100002,-31.800001,41.235294,-128.91751,0.0,1,0,0,3.697261,3.0820172,false,0.0
52956,-0.013671875,-0.021972656,-1.0336914,0.006385351,-0.021284504,-0.020220278,218.1,35.100002,-31.800001,41.235294,-128.91751,0.0,1,0,0,3.697261,3.0820172,false,0.0
52956,-0.013671875,-0.021972656,-1.0336914,0.006385351,-0.021284504,-0.020220278,218.1,35.100002,-31.800001,41.235294,-128.91751,0.0,1,0,0,3.697261,3.0820172,false,0.0
52956,-0.013671875,-0.021972656,-1.0336914,0.006385351,-0.021284504,-0.020220278,218.1,35.100002,-31.800001,41.235294,-128.91751,0.0,1,0,0,3.697261,3.0820172,false,0.0
52956,-0.013671875,-0.021972656,-1.0336914,0.006385351,-0.021284504,-0.020220278,218.1,35.100002,-31.800001,41.235294,-128.91751,0.0,1,0,0,3.697261,3.0820172,false,0.0
52956,-0.013671875,-0.021972656,-1.0336914,0.006385351,-0.021284504,-0.020220278,218.1,35.100002,-31.800001,41.235294,-128.91751,0.0,1,0,0,3.697261,3.0820172,false,0.0
52956,-0.013671875,-0.021972656,-1.0336914,0.006385351,-0.021284504,-0.020220278,218.1,35.100002,-31.800001,41.235294,-128.91751,0.0,1,0,0,3.697261,3.0820172,false,0.0
52956,-0.013671875,-0.021972656,-1.0336914,0.006385351,-0.021284504,-0.020220278,218.1,35.100002,-31.800001,41.235294,-128.91751,0.0,1,0,0,3.697261,3.0820172,false,0.0
52956,-0.013671875,-0.021972656,-1.0336914,0.006385351,-0.021284504,-0.020220278,218.1,35.100002,-31.800001,41.235294,-128.91751,0.0,1,0,0,3.697261,3.0820172,false,0.0
52956,-0.013671875,-0.021972656,-1.0336914,0.006385351,-0.021284504,-0.020220278,218.1,35.100002,-31.800001,41.235294,-128.91751,0.0,1,0,0,3.697261,3.0820172,false,0.0
52956,-0.013671875,-0.021972656,-1.0336914,0.006385351,-0.021284504,-0.020220278,218.1,35.100002,-31.800001,41.235294,-128.91751,0.0,1,0,0,3.697261,3.0820172,false,0.0
52956,-0.013671875,-0.021972656,-1.0336914,0.006385351,-0.021284504,-0.020220278,218.1,35.100002,-31.800001,41.235294,-128.91751,0.0,1,0,0,3.697261,3.0820172,false,0.0
52956,-0.013671875,-0.021972656,-1.0336914,0.006385351,-0.021284504,-0.020220278,218.1,35.100002,-31.800001,41.235294,-128.91751,0.0,1,0,0,3.697261,3.0820172,false,0.0
52956,-0.013671875,-0.021972656,-1.0336914,0.006385351,-0.021284504,-0.020220278,218.1,35.100002,-31.800001,41.235294,-128.91751,0.0,1,0,0,3.697261,3.0820172,false,0.0
52956,-0.013671875,-0.021972656,-1.0336914,0.006385351,-0.021284504,-0.020220278,218.1,35.100002,-31.800001,41.235294,-128.91751,0.0,1,0,0,3.697261,3.0820172,false,0.0
52956,-0.013671875,-0.021972656,-1.0336914,0.006385351,-0.021284504,-0.020220278,218.1,35.100002,-31.800001,41.235294,-128.91751,0.0,1,0,0,3.697261,3.0820172,false,0.0
52956,-0.013671875,-0.021972656,-1.0336914,0.006385351,-0.021284504,-0.020220278,218.1,35.100002,-31.800001,41.235294,-128.91751,0.0,1,0,0,3.697261,3.0820172,false,0.0
52956,-0.011230469,-0.024414062,-1.0375977,0.0021284504,-0.023412954,-0.012770702,219.3,36.9,-30.900002,41.217648,-128.91751,0.0,1,0,0,3.708934,3.0878158,false,0.0
53005,-0.011230469,-0.024414062,-1.0375977,0.0021284504,-0.023412954,-0.012770702,219.3,36.9,-30.900002,41.217648,-128.91751,0.0,1,0,0,3.708934,3.0878158,false,0.0
53019,-0.011230469,-0.024414062,-1.0375977,0.0021284504,-0.023412954,-0.012770702,219.3,36.9,-30.900002,41.217648,-128.91751,0.0,1,0,0,3.708934,3.0878158,false,0.0
53019,-0.011230469,-0.024414062,-1.0375977,0.0021284504,-0.023412954,-0.012770702,219.3,36.9,-30.900002,41.217648,-128.91751,0.0,1,0,0,3.708934,3.0878158,false,0.0
53019,-0.011230469,-0.024414062,-1.0375977,0.0021284504,-0.023412954,-0.012770702,219.3,36.9,-30.900002,41.217648,-128.91751,0.0,1,0,0,3.708934,3.0878158,false,0.0
53019,-0.011230469,-0.024414062,-1.0375977,0.0021284504,-0.023412954,-0.012770702,219.3,36.9,-30.900002,41.217648,-128.91751,0.0,1,0,0,3.708934,3.0878158,false,0.0
53019,-0.011230469,-0.024414062,-1.0375977,0.0021284504,-0.023412954,-0.012770702,219.3,36.9,-30.900002,41.217648,-128.91751,0.0,1,0,0,3.708934,3.0878158,false,0.0
53019,-0.011230469,-0.024414062,-1.0375977,0.0021284504,-0.023412954,-0.012770702,219.3,36.9,-30.900002,41.217648,-128.91751,0.0,1,0,0,3.708934,3.0878158,false,0.0
53019,-0.011230469,-0.024414062,-1.0375977,0.0021284504,-0.023412954,-0.012770702,219.3,36.9,-30.900002,41.217648,-128.91751,0.0,1,0,0,3.708934,3.0878158,false,0.0
53019,-0.011230469,-0.024414062,-1.0375977,0.0021284504,-0.023412954,-0.012770702,219.3,36.9,-30.900002,41.217648,-128.91751,0.0,1,0,0,3.708934,3.0878158,false,0.0
53019,-0.011230469,-0.024414062,-1.0375977,0.0021284504,-0.023412954,-0.012770702,219.3,36.9,-30.900002,41.217648,-128.91751,0.0,1,0,0,3.708934,3.0878158,false,0.0
53019,-0.011230469,-0.024414062,-1.0375977,0.0021284504,-0.023412954,-0.012770702,219.3,36.9,-30.900002,41.217648,-128.91751,0.0,1,0,0,3.708934,3.0878158,false,0.0
53019,-0.011230469,-0.024414062,-1.0375977,0.0021284504,-0.023412954,-0.012770702,219.3,36.9,-30.900002,41.217648,-128.91751,0.0,1,0,0,3.708934,3.0878158,false,0.0
53019,-0.011230469,-0.024414062,-1.0375977,0.0021284504,-0.023412954,-0.012770702,219.3,36.9,-30.900002,41.217648,-128.91751,0.0,1,0,0,3.708934,3.0878158,false,0.0
53019,-0.011230469,-0.024414062,-1.0375977,0.0021284504,-0.023412954,-0.012770702,219.3,36.9,-30.900002,41.217648,-128.91751,0.0,1,0,0,3.708934,3.0878158,false,0.0
53019,-0.011230469,-0.024414062,-1.0375977,0.0021284504,-0.023412954,-0.012770702,219.3,36.9,-30.900002,41.217648,-128.91751,0.0,1,0,0,3.708934,3.0878158,false,0.0
53019,-0.011230469,-0.024414062,-1.0375977,0.0021284504,-0.023412954,-0.012770702,219.3,36.9,-30.900002,41.217648,-128.91751,0.0,1,0,0,3.708934,3.0878158,false,0.0
53020,-0.011230469,-0.024414062,-1.0375977,0.0021284504,-0.023412954,-0.012770702,219.3,36.9,-30.900002,41.217648,-128.91751,0.0,1,0,0,3.708934,3.0878158,false,0.0
53020,-0.011230469,-0.024414062,-1.0375977,0.0021284504,-0.023412954,-0.012770702,219.3,36.9,-30.900002,41.217648,-128.91751,0.0,1,0,0,3.708934,3.0878158,false,0.0
53020,-0.011230469,-0.024414062,-1.0375977,0.0021284504,-0.023412954,-0.012770702,219.3,36.9,-30.900002,41.217648,-128.91751,0.0,1,0,0,3.708934,3.0878158,false,0.0
53020,-0.011230469,-0.024414062,-1.0375977,0.0021284504,-0.023412954,-0.012770702,219.3,36.9,-30.900002,41.217648,-128.91751,0.0,1,0,0,3.708934,3.0878158,false,0.0
53020,-0.011230469,-0.024414062,-1.0375977,0.0021284504,-0.023412954,-0.012770702,219.3,36.9,-30.900002,41.217648,-128.91751,0.0,1,0,0,3.708934,3.0878158,false,0.0
53020,-0.011230469,-0.024414062,-1.0375977,0.0021284504,-0.023412954,-0.012770702,219.3,36.9,-30.900002,41.217648,-128.91751,0.0,1,0,0,3.708934,3.0878158,false,0.0
53020,-0.011230469,-0.024414062,-1.0375977,0.0021284504,-0.023412954,-0.012770702,219.3,36.9,-30.900002,41.217648,-128.91751,0.0,1,0,0,3.708934,3.0878158,false,0.0
53020,-0.011230469,-0.024414062,-1.0375977,0.0021284504,-0.023412954,-0.012770702,219.3,36.9,-30.900002,41.217648,-128.91751,0.0,1,0,0,3.708934,3.0878158,false,0.0
53020,-0.011230469,-0.024414062,-1.0375977,0.0021284504,-0.023412954,-0.012770702,219.3,36.9,-30.900002,41.217648,-128.91751,0.0,1,0,0,3.708934,3.0878158,false,0.0
53020,-0.011230469,-0.024414062,-1.0375977,0.0021284504,-0.023412954,-0.012770702,219.3,36.9,-30.900002,41.217648,-128.91751,0.0,1,0,0,3.708934,3.0878158,false,0.0
53020,-0.011230469,-0.024414062,-1.0375977,0.0021284504,-0.023412954,-0.012770702,219.3,36.9,-30.900002,41.217648,-128.91751,0.0,1,0,0,3.708934,3.0878158,false,0.0
53020,-0.011230469,-0.024414062,-1.0375977,0.0021284504,-0.023412954,-0.012770702,219.3,36.9,-30.900002,41.217648,-128.91751,0.0,1,0,0,3.708934,3.0878158,false,0.0
53020,-0.011230469,-0.024414062,-1.0375977,0.0021284504,-0.023412954,-0.012770702,219.3,36.9,-30.900002,41.217648,-128.91751,0.0,1,0,0,3.708934,3.0878158,false,0.0
53020,-0.011230469,-0.024414062,-1.0375977,0.0021284504,-0.023412954,-0.012770702,219.3,36.9,-30.900002,41.217648,-128.91751,0.0,1,0,0,3.708934,3.0878158,false,0.0
53020,-0.011230469,-0.024414062,-1.0375977,0.0021284504,-0.023412954,-0.012770702,219.3,36.9,-30.900002,41.217648,-128.91751,0.0,1,0,0,3.708934,3.0878158,false,0.0
53020,-0.011230469,-0.024414062,-1.0375977,0.0021284504,-0.023412954,-0.012770702,219.3,36.9,-30.900002,41.217648,-128.91751,0.0,1,0,0,3.708934,3.0878158,false,0.0
53020,-0.011230469,-0.024414062,-1.0375977,0.0021284504,-0.023412954,-0.012770702,219.3,36.9,-30.900002,41.217648,-128.91751,0.0,1,0,0,3.708934,3.0878158,false,0.0
53020,-0.011230469,-0.024414062,-1.0375977,0.0021284504,-0.023412954,-0.012770702,219.3,36.9,-30.900002,41.217648,-128.91751,0.0,1,0,0,3.708934,3.0878158,false,0.0
53020,-0.011230469,-0.024414062,-1.0375977,0.0021284504,-0.023412954,-0.012770702,219.3,36.9,-30.900002,41.217648,-128.91751,0.0,1,0,0,3.708934,3.0878158,false,0.0
53020,-0.011230469,-0.024414062,-1.0375977,0.0021284504,-0.023412954,-0.012770702,219.3,36.9,-30.900002,41.217648,-128.91751,0.0,1,0,0,3.708934,3.0878158,false,0.0
53020,-0.011230469,-0.024414062,-1.0375977,0.0021284504,-0.023412954,-0.012770702,219.3,36.9,-30.900002,41.217648,-128.91751,0.0,1,0,0,3.708934,3.0878158,false,0.0
53020,-0.011230469,-0.024414062,-1.0375977,0.0021284504,-0.023412954,-0.012770702,219.3,36.9,-30.900002,41.217648,-128.91751,0.0,1,0,0,3.708934,3.0878158,false,0.0
53020,-0.011230469,-0.024414062,-1.0375977,0.0021284504,-0.023412954,-0.012770702,219.3,36.9,-30.900002,41.217648,-128.91751,0.0,1,0,0,3.708934,3.0878158,false,0.0
53020,-0.011230469,-0.024414062,-1.0375977,0.0021284504,-0.023412954,-0.012770702,219.3,36.9,-30.900002,41.217648,-128.91751,0.0,1,0,0,3.708934,3.0878158,false,0.0
53021,-0.011230469,-0.024414062,-1.0375977,0.0021284504,-0.023412954,-0.012770702,219.3,36.9,-30.900002,41.217648,-128.91751,0.0,1,0,0,3.708934,3.0878158,false,0.0
53021,-0.011230469,-0.024414062,-1.0375977,0.0021284504,-0.023412954,-0.012770702,219.3,36.9,-30.900002,41.217648,-128.91751,0.0,1,0,0,3.708934,3.0878158,false,0.0
53021,-0.011230469,-0.026367188,-1.0351562,0.004256901,-0.022348728,-0.015963377,219.00002,36.600002,-28.500002,41.2,-128.91751,0.0,1,0,0,3.6855116,3.0761425,false,0.0
53048,-0.011230469,-0.026367188,-1.0351562,0.004256901,-0.022348728,-0.015963377,219.00002,36.600002,-28.500002,41.2,-128.91751,0.0,1,0,0,3.6855116,3.0761425,false,0.0
53048,-0.011230469,-0.026367188,-1.0351562,0.004256901,-0.022348728,-0.015963377,219.00002,36.600002,-28.500002,41.2,-128.91751,0.0,1,0,0,3.6855116,3.0761425,false,0.0
53048,-0.011230469,-0.026367188,-1.0351562,0.004256901,-0.022348728,-0.015963377,219.00002,36.600002,-28.500002,41.2,-128.91751,0.0,1,0,0,3.6855116,3.0761425,false,0.0
53049,-0.011230469,-0.026367188,-1.0351562,0.004256901,-0.022348728,-0.015963377,219.00002,36.600002,-28.500002,41.2,-128.91751,0.0,1,0,0,3.6855116,3.0761425,false,0.0
53049,-0.011230469,-0.026367188,-1.0351562,0.004256901,-0.022348728,-0.015963377,219.00002,36.600002,-28.500002,41.2,-128.91751,0.0,1,0,0,3.6855116,3.0761425,false,0.0
53049,-0.011230469,-0.026367188,-1.0351562,0.004256901,-0.022348728,-0.015963377,219.00002,36.600002,-28.500002,41.2,-128.91751,0.0,1,0,0,3.6855116,3.0761425,false,0.0
53049,-0.011230469,-0.026367188,-1.0351562,0.004256901,-0.022348728,-0.015963377,219.00002,36.600002,-28.500002,41.2,-128.91751,0.0,1,0,0,3.6855116,3.0761425,false,0.0
53049,-0.011230469,-0.026367188,-1.0351562,0.004256901,-0.022348728,-0.015963377,219.00002,36.600002,-28.500002,41.2,-128.91751,0.0,1,0,0,3.6855116,3.0761425,false,0.0
53049,-0.011230469,-0.026367188,-1.0351562,0.004256901,-0.022348728,-0.015963377,219.00002,36.600002,-28.500002,41.2,-128.91751,0.0,1,0,0,3.6855116,3.0761425,false,0.0
53049,-0.011230469,-0.026367188,-1.0351562,0.004256901,-0.022348728,-0.015963377,219.00002,36.600002,-28.500002,41.2,-128.91751,0.0,1,0,0,3.6855116,3.0761425,false,0.0
53049,-0.011230469,-0.026367188,-1.0351562,0.004256901,-0.022348728,-0.015963377,219.00002,36.600002,-28.500002,41.2,-128.91751,0.0,1,0,0,3.6855116,3.0761425,false,0.0
53049,-0.011230469,-0.026367188,-1.0351562,0.004256901,-0.022348728,-0.015963377,219.00002,36.600002,-28.500002,41.2,-128.91751,0.0,1,0,0,3.6855116,3.0761425,false,0.0
53050,-0.011230469,-0.026367188,-1.0351562,0.004256901,-0.022348728,-0.015963377,219.00002,36.600002,-28.500002,41.2,-128.91751,0.0,1,0,0,3.6855116,3.0761425,false,0.0
53050,-0.011230469,-0.026367188,-1.0351562,0.004256901,-0.022348728,-0.015963377,219.00002,36.600002,-28.500002,41.2,-128.91751,0.0,1,0,0,3.6855116,3.0761425,false,0.0
53050,-0.011230469,-0.026367188,-1.0351562,0.004256901,-0.022348728,-0.015963377,219.00002,36.600002,-28.500002,41.2,-128.91751,0.0,1,0,0,3.6855116,3.0761425,false,0.0
53050,-0.011230469,-0.026367188,-1.0351562,0.004256901,-0.022348728,-0.015963377,219.00002,36.600002,-28.500002,41.2,-128.91751,0.0,1,0,0,3.6855116,3.0761425,false,0.0
53050,-0.011230469,-0.026367188,-1.0351562,0.004256901,-0.022348728,-0.015963377,219.00002,36.600002,-28.500002,41.2,-128.91751,0.0,1,0,0,3.6855116,3.0761425,false,0.0
53050,-0.011230469,-0.026367188,-1.0351562,0.004256901,-0.022348728,-0.015963377,219.00002,36.600002,-28.500002,41.2,-128.91751,0.0,1,0,0,3.6855116,3.0761425,false,0.0
53050,-0.011230469,-0.026367188,-1.0351562,0.004256901,-0.022348728,-0.015963377,219.00002,36.600002,-28.500002,41.2,-128.91751,0.0,1,0,0,3.6855116,3.0761425,false,0.0
53050,-0.011230469,-0.026367188,-1.0351562,0.004256901,-0.022348728,-0.015963377,219.00002,36.600002,-28.500002,41.2,-128.91751,0.0,1,0,0,3.6855116,3.0761425,false,0.0
53050,-0.011230469,-0.026367188,-1.0351562,0.004256901,-0.022348728,-0.015963377,219.00002,36.600002,-28.500002,41.2,-128.91751,0.0,1,0,0,3.6855116,3.0761425,false,0.0
53050,-0.011230469,-0.026367188,-1.0351562,0.004256901,-0.022348728,-0.015963377,219.00002,36.600002,-28.500002,41.2,-128.91751,0.0,1,0,0,3.6855116,3.0761425,false,0.0
53050,-0.011230469,-0.026367188,-1.0351562,0.004256901,-0.022348728,-0.015963377,219.00002,36.600002,-28.500002,41.2,-128.91751,0.0,1,0,0,3.6855116,3.0761425,false,0.0
53063,-0.011230469,-0.026367188,-1.0351562,0.004256901,-0.022348728,-0.015963377,219.00002,36.600002,-28.500002,41.2,-128.91751,0.0,1,0,0,3.6855116,3.0761425,false,0.0
53063,-0.011230469,-0.026367188,-1.0351562,0.004256901,-0.022348728,-0.015963377,219.00002,36.600002,-28.500002,41.2,-128.91751,0.0,1,0,0,3.6855116,3.0761425,false,0.0
53063,-0.011230469,-0.026367188,-1.0351562,0.004256901,-0.022348728,-0.015963377,219.00002,36.600002,-28.500002,41.2,-128.91751,0.0,1,0,0,3.6855116,3.0761425,false,0.0
53063,-0.011230469,-0.026367188,-1.0351562,0.004256901,-0.022348728,-0.015963377,219.00002,36.600002,-28.500002,41.2,-128.91751,0.0,1,0,0,3.6855116,3.0761425,false,0.0
53063,-0.011230469,-0.026367188,-1.0351562,0.004256901,-0.022348728,-0.015963377,219.00002,36.600002,-28.500002,41.2,-128.91751,0.0,1,0,0,3.6855116,3.0761425,false,0.0
53063,-0.011230469,-0.026367188,-1.0351562,0.004256901,-0.022348728,-0.015963377,219.00002,36.600002,-28.500002,41.2,-128.91751,0.0,1,0,0,3.6855116,3.0761425,false,0.0
53063,-0.011230469,-0.026367188,-1.0351562,0.004256901,-0.022348728,-0.015963377,219.00002,36.600002,-28.500002,41.2,-128.91751,0.0,1,0,0,3.6855116,3.0761425,false,0.0
53063,-0.011230469,-0.026367188,-1.0351562,0.004256901,-0.022348728,-0.015963377,219.00002,36.600002,-28.500002,41.2,-128.91751,0.0,1,0,0,3.6855116,3.0761425,false,0.0
53063,-0.011230469,-0.026367188,-1.0351562,0.004256901,-0.022348728,-0.015963377,219.00002,36.600002,-28.500002,41.2,-128.91751,0.0,1,0,0,3.6855116,3.0761425,false,0.0
53063,-0.011230469,-0.026367188,-1.0351562,0.004256901,-0.022348728,-0.015963377,219.00002,36.600002,-28.500002,41.2,-128.91751,0.0,1,0,0,3.6855116,3.0761425,false,0.0
53063,-0.011230469,-0.026367188,-1.0351562,0.004256901,-0.022348728,-0.015963377,219.00002,36.600002,-28.500002,41.2,-128.91751,0.0,1,0,0,3.6855116,3.0761425,false,0.0
53063,-0.011230469,-0.026367188,-1.0351562,0.004256901,-0.022348728,-0.015963377,219.00002,36.600002,-28.500002,41.2,-128.91751,0.0,1,0,0,3.6855116,3.0761425,false,0.0
53063,-0.011230469,-0.026367188,-1.0351562,0.004256901,-0.022348728,-0.015963377,219.00002,36.600002,-28.500002,41.2,-128.91751,0.0,1,0,0,3.6855116,3.0761425,false,0.0
53063,-0.011230469,-0.026367188,-1.0351562,0.004256901,-0.022348728,-0.015963377,219.00002,36.600002,-28.500002,41.2,-128.91751,0.0,1,0,0,3.6855116,3.0761425,false,0.0
53063,-0.011230469,-0.026367188,-1.0351562,0.004256901,-0.022348728,-0.015963377,219.00002,36.600002,-28.500002,41.2,-128.91751,0.0,1,0,0,3.6855116,3.0761425,false,0.0
53063,-0.011230469,-0.026367188,-1.0351562,0.004256901,-0.022348728,-0.015963377,219.00002,36.600002,-28.500002,41.2,-128.91751,0.0,1,0,0,3.6855116,3.0761425,false,0.0
53063,-0.011230469,-0.026367188,-1.0351562,0.004256901,-0.022348728,-0.015963377,219.00002,36.600002,-28.500002,41.2,-128.91751,0.0,1,0,0,3.6855116,3.0761425,false,0.0
53063,-0.011230469,-0.026367188,-1.0351562,0.004256901,-0.022348728,-0.015963377,219.00002,36.600002,-28.500002,41.2,-128.91751,0.0,1,0,0,3.6855116,3.0761425,false,0.0
53064,-0.011230469,-0.026367188,-1.0351562,0.004256901,-0.022348728,-0.015963377,219.00002,36.600002,-28.500002,41.2,-128.91751,0.0,1,0,0,3.6855116,3.0761425,false,0.0
53064,-0.009277344,-0.023925781,-1.0400391,0.005321126,-0.023412954,-0.018091828,217.50002,33.600002,-32.7,41.235294,-128.91751,0.0,1,0,0,3.7030594,3.0761425,false,0.0
53136,-0.009277344,-0.023925781,-1.0400391,0.005321126,-0.023412954,-0.018091828,217.50002,33.600002,-32.7,41.235294,-128.91751,0.0,1,0,0,3.7030594,3.0761425,false,0.0
53136,-0.009277344,-0.023925781,-1.0400391,0.005321126,-0.023412954,-0.018091828,217.50002,33.600002,-32.7,41.235294,-128.91751,0.0,1,0,0,3.7030594,3.0761425,false,0.0
53136,-0.009277344,-0.023925781,-1.0400391,0.005321126,-0.023412954,-0.018091828,217.50002,33.600002,-32.7,41.235294,-128.91751,0.0,1,0,0,3.7030594,3.0761425,false,0.0
53136,-0.009277344,-0.023925781,-1.0400391,0.005321126,-0.023412954,-0.018091828,217.50002,33.600002,-32.7,41.235294,-128.91751,0.0,1,0,0,3.7030594,3.0761425,false,0.0
53136,-0.009277344,-0.023925781,-1.0400391,0.005321126,-0.023412954,-0.018091828,217.50002,33.600002,-32.7,41.235294,-128.91751,0.0,1,0,0,3.7030594,3.0761425,false,0.0
53136,-0.009277344,-0.023925781,-1.0400391,0.005321126,-0.023412954,-0.018091828,217.50002,33.600002,-32.7,41.235294,-128.91751,0.0,1,0,0,3.7030594,3.0761425,false,0.0
53136,-0.009277344,-0.023925781,-1.0400391,0.005321126,-0.023412954,-0.018091828,217.50002,33.600002,-32.7,41.235294,-128.91751,0.0,1,0,0,3.7030594,3.0761425,false,0.0
53136,-0.009277344,-0.023925781,-1.0400391,0.005321126,-0.023412954,-0.018091828,217.50002,33.600002,-32.7,41.235294,-128.91751,0.0,1,0,0,3.7030594,3.0761425,false,0.0
53137,-0.009277344,-0.023925781,-1.0400391,0.005321126,-0.023412954,-0.018091828,217.50002,33.600002,-32.7,41.235294,-128.91751,0.0,1,0,0,3.7030594,3.0761425,false,0.0
53137,-0.009277344,-0.023925781,-1.0400391,0.005321126,-0.023412954,-0.018091828,217.50002,33.600002,-32.7,41.235294,-128.91751,0.0,1,0,0,3.7030594,3.0761425,false,0.0
53137,-0.009277344,-0.023925781,-1.0400391,0.005321126,-0.023412954,-0.018091828,217.50002,33.600002,-32.7,41.235294,-128.91751,0.0,1,0,0,3.7030594,3.0761425,false,0.0
53137,-0.009277344,-0.023925781,-1.0400391,0.005321126,-0.023412954,-0.018091828,217.50002,33.600002,-32.7,41.235294,-128.91751,0.0,1,0,0,3.7030594,3.0761425,false,0.0
53137,-0.009277344,-0.023925781,-1.0400391,0.005321126,-0.023412954,-0.018091828,217.50002,33.600002,-32.7,41.235294,-128.91751,0.0,1,0,0,3.7030594,3.0761425,false,0.0
53137,-0.009277344,-0.023925781,-1.0400391,0.005321126,-0.023412954,-0.018091828,217.50002,33.600002,-32.7,41.235294,-128.91751,0.0,1,0,0,3.7030594,3.0761425,false,0.0
53137,-0.009277344,-0.023925781,-1.0400391,0.005321126,-0.023412954,-0.018091828,217.50002,33.600002,-32.7,41.235294,-128.91751,0.0,1,0,0,3.7030594,3.0761425,false,0.0
53137,-0.009277344,-0.023925781,-1.0400391,0.005321126,-0.023412954,-0.018091828,217.50002,33.600002,-32.7,41.235294,-128.91751,0.0,1,0,0,3.7030594,3.0761425,false,0.0
53137,-0.009277344,-0.023925781,-1.0400391,0.005321126,-0.023412954,-0.018091828,217.50002,33.600002,-32.7,41.235294,-128.91751,0.0,1,0,0,3.7030594,3.0761425,false,0.0
53137,-0.009277344,-0.023925781,-1.0400391,0.005321126,-0.023412954,-0.018091828,217.50002,33.600002,-32.7,41.235294,-128.91751,0.0,1,0,0,3.7030594,3.0761425,false,0.0
53137,-0.009277344,-0.023925781,-1.0400391,0.005321126,-0.023412954,-0.018091828,217.50002,33.600002,-32.7,41.235294,-128.91751,0.0,1,0,0,3.7030594,3.0761425,false,0.0
53137,-0.009277344,-0.023925781,-1.0400391,0.005321126,-0.023412954,-0.018091828,217.50002,33.600002,-32.7,41.235294,-128.91751,0.0,1,0,0,3.7030594,3.0761425,false,0.0
53137,-0.009277344,-0.023925781,-1.0400391,0.005321126,-0.023412954,-0.018091828,217.50002,33.600002,-32.7,41.235294,-128.91751,0.0,1,0,0,3.7030594,3.0761425,false,0.0
53137,-0.009277344,-0.023925781,-1.0400391,0.005321126,-0.023412954,-0.018091828,217.50002,33.600002,-32.7,41.235294,-128.91751,0.0,1,0,0,3.7030594,3.0761425,false,0.0
53137,-0.009277344,-0.023925781,-1.0400391,0.005321126,-0.023412954,-0.018091828,217.50002,33.600002,-32.7,41.235294,-128.91751,0.0,1,0,0,3.7030594,3.0761425,false,0.0
53137,-0.009277344,-0.023925781,-1.0400391,0.005321126,-0.023412954,-0.018091828,217.50002,33.600002,-32.7,41.235294,-128.91751,0.0,1,0,0,3.7030594,3.0761425,false,0.0
53137,-0.009277344,-0.023925781,-1.0400391,0.005321126,-0.023412954,-0.018091828,217.50002,33.600002,-32.7,41.235294,-128.91751,0.0,1,0,0,3.7030594,3.0761425,false,0.0
53137,-0.009277344,-0.023925781,-1.0400391,0.005321126,-0.023412954,-0.018091828,217.50002,33.600002,-32.7,41.235294,-128.91751,0.0,1,0,0,3.7030594,3.0761425,false,0.0
53137,-0.009277344,-0.023925781,-1.0400391,0.005321126,-0.023412954,-0.018091828,217.50002,33.600002,-32.7,41.235294,-128.91751,0.0,1,0,0,3.7030594,3.0761425,false,0.0
53137,-0.009277344,-0.023925781,-1.0400391,0.005321126,-0.023412954,-0.018091828,217.50002,33.600002,-32.7,41.235294,-128.91751,0.0,1,0,0,3.7030594,3.0761425,false,0.0
53137,-0.009277344,-0.023925781,-1.0400391,0.005321126,-0.023412954,-0.018091828,217.50002,33.600002,-32.7,41.235294,-128.91751,0.0,1,0,0,3.7030594,3.0761425,false,0.0
53137,-0.009277344,-0.023925781,-1.0400391,0.005321126,-0.023412954,-0.018091828,217.50002,33.600002,-32.7,41.235294,-128.91751,0.0,1,0,0,3.7030594,3.0761425,false,0.0
53137,-0.009277344,-0.023925781,-1.0400391,0.005321126,-0.023412954,-0.018091828,217.50002,33.600002,-32.7,41.235294,-128.91751,0.0,1,0,0,3.7030594,3.0761425,false,0.0
53137,-0.009277344,-0.023925781,-1.0400391,0.005321126,-0.023412954,-0.018091828,217.50002,33.600002,-32.7,41.235294,-128.91751,0.0,1,0,0,3.7030594,3.0761425,false,0.0
53137,-0.009277344,-0.023925781,-1.0400391,0.005321126,-0.023412954,-0.018091828,217.50002,33.600002,-32.7,41.235294,-128.91751,0.0,1,0,0,3.7030594,3.0761425,false,0.0
53137,-0.009277344,-0.023925781,-1.0400391,0.005321126,-0.023412954,-0.018091828,217.50002,33.600002,-32.7,41.235294,-128.91751,0.0,1,0,0,3.7030594,3.0761425,false,0.0
53137,-0.009277344,-0.023925781,-1.0400391,0.005321126,-0.023412954,-0.018091828,217.50002,33.600002,-32.7,41.235294,-128.91751,0.0,1,0,0,3.7030594,3.0761425,false,0.0
53137,-0.009277344,-0.023925781,-1.0400391,0.005321126,-0.023412954,-0.018091828,217.50002,33.600002,-32.7,41.235294,-128.91751,0.0,1,0,0,3.7030594,3.0761425,false,0.0
53137,-0.009277344,-0.023925781,-1.0400391,0.005321126,-0.023412954,-0.018091828,217.50002,33.600002,-32.7,41.235294,-128.91751,0.0,1,0,0,3.7030594,3.0761425,false,0.0
53137,-0.009277344,-0.023925781,-1.0400391,0.005321126,-0.023412954,-0.018091828,217.50002,33.600002,-32.7,41.235294,-128.91751,0.0,1,0,0,3.7030594,3.0761425,false,0.0
53137,-0.009277344,-0.023925781,-1.0400391,0.005321126,-0.023412954,-0.018091828,217.50002,33.600002,-32.7,41.235294,-128.91751,0.0,1,0,0,3.7030594,3.0761425,false,0.0
53137,-0.009277344,-0.023925781,-1.0400391,0.005321126,-0.023412954,-0.018091828,217.50002,33.600002,-32.7,41.235294,-128.91751,0.0,1,0,0,3.7030594,3.0761425,false,0.0
53137,-0.009277344,-0.023925781,-1.0400391,0.005321126,-0.023412954,-0.018091828,217.50002,33.600002,-32.7,41.235294,-128.91751,0.0,1,0,0,3.7030594,3.0761425,false,0.0
53137,-0.009277344,-0.023925781,-1.0400391,0.005321126,-0.023412954,-0.018091828,217.50002,33.600002,-32.7,41.235294,-128.91751,0.0,1,0,0,3.7030594,3.0761425,false,0.0
53137,-0.009277344,-0.024902344,-1.0366211,0.0010642252,-0.022348728,-0.017027603,215.70001,36.0,-30.300001,41.235294,-128.91751,0.0,1,0,0,3.6796367,3.0702677,false,0.0
53149,-0.009277344,-0.024902344,-1.0366211,0.0010642252,-0.022348728,-0.017027603,215.70001,36.0,-30.300001,41.235294,-128.91751,0.0,1,0,0,3.6796367,3.0702677,false,0.0
53149,-0.009277344,-0.024902344,-1.0366211,0.0010642252,-0.022348728,-0.017027603,215.70001,36.0,-30.300001,41.235294,-128.91751,0.0,1,0,0,3.6796367,3.0702677,false,0.0
53149,-0.009277344,-0.024902344,-1.0366211,0.0010642252,-0.022348728,-0.017027603,215.70001,36.0,-30.300001,41.235294,-128.91751,0.0,1,0,0,3.6796367,3.0702677,false,0.0
53164,-0.009277344,-0.024902344,-1.0366211,0.0010642252,-0.022348728,-0.017027603,215.70001,36.0,-30.300001,41.235294,-128.91751,0.0,1,0,0,3.6796367,3.0702677,false,0.0
53164,-0.009277344,-0.024902344,-1.0366211,0.0010642252,-0.022348728,-0.017027603,215.70001,36.0,-30.300001,41.235294,-128.91751,0.0,1,0,0,3.6796367,3.0702677,false,0.0
53164,-0.009277344,-0.024902344,-1.0366211,0.0010642252,-0.022348728,-0.017027603,215.70001,36.0,-30.300001,41.235294,-128.91751,0.0,1,0,0,3.6796367,3.0702677,false,0.0
53164,-0.009277344,-0.024902344,-1.0366211,0.0010642252,-0.022348728,-0.017027603,215.70001,36.0,-30.300001,41.235294,-128.91751,0.0,1,0,0,3.6796367,3.0702677,false,0.0
53164,-0.009277344,-0.024902344,-1.0366211,0.0010642252,-0.022348728,-0.017027603,215.70001,36.0,-30.300001,41.235294,-128.91751,0.0,1,0,0,3.6796367,3.0702677,false,0.0
53164,-0.009277344,-0.024902344,-1.0366211,0.0010642252,-0.022348728,-0.017027603,215.70001,36.0,-30.300001,41.235294,-128.91751,0.0,1,0,0,3.6796367,3.0702677,false,0.0
53164,-0.009277344,-0.024902344,-1.0366211,0.0010642252,-0.022348728,-0.017027603,215.70001,36.0,-30.300001,41.235294,-128.91751,0.0,1,0,0,3.6796367,3.0702677,false,0.0
53164,-0.009277344,-0.024902344,-1.0366211,0.0010642252,-0.022348728,-0.017027603,215.70001,36.0,-30.300001,41.235294,-128.91751,0.0,1,0,0,3.6796367,3.0702677,false,0.0
53164,-0.009277344,-0.024902344,-1.0366211,0.0010642252,-0.022348728,-0.017027603,215.70001,36.0,-30.300001,41.235294,-128.91751,0.0,1,0,0,3.6796367,3.0702677,false,0.0
53164,-0.009277344,-0.024902344,-1.0366211,0.0010642252,-0.022348728,-0.017027603,215.70001,36.0,-30.300001,41.235294,-128.91751,0.0,1,0,0,3.6796367,3.0702677,false,0.0
53164,-0.009277344,-0.024902344,-1.0366211,0.0010642252,-0.022348728,-0.017027603,215.70001,36.0,-30.300001,41.235294,-128.91751,0.0,1,0,0,3.6796367,3.0702677,false,0.0
53164,-0.009277344,-0.024902344,-1.0366211,0.0010642252,-0.022348728,-0.017027603,215.70001,36.0,-30.300001,41.235294,-128.91751,0.0,1,0,0,3.6796367,3.0702677,false,0.0
53164,-0.009277344,-0.024902344,-1.0366211,0.0010642252,-0.022348728,-0.017027603,215.70001,36.0,-30.300001,41.235294,-128.91751,0.0,1,0,0,3.6796367,3.0702677,false,0.0
53164,-0.009277344,-0.024902344,-1.0366211,0.0010642252,-0.022348728,-0.017027603,215.70001,36.0,-30.300001,41.235294,-128.91751,0.0,1,0,0,3.6796367,3.0702677,false,0.0
53164,-0.009277344,-0.024902344,-1.0366211,0.0010642252,-0.022348728,-0.017027603,215.70001,36.0,-30.300001,41.235294,-128.91751,0.0,1,0,0,3.6796367,3.0702677,false,0.0
53164,-0.009277344,-0.024902344,-1.0366211,0.0010642252,-0.022348728,-0.017027603,215.70001,36.0,-30.300001,41.235294,-128.91751,0.0,1,0,0,3.6796367,3.0702677,false,0.0
53164,-0.009277344,-0.024902344,-1.0366211,0.0010642252,-0.022348728,-0.017027603,215.70001,36.0,-30.300001,41.235294,-128.91751,0.0,1,0,0,3.6796367,3.0702677,false,0.0
53164,-0.009277344,-0.024902344,-1.0366211,0.0010642252,-0.022348728,-0.017027603,215.70001,36.0,-30.300001,41.235294,-128.91751,0.0,1,0,0,3.6796367,3.0702677,false,0.0
53164,-0.009277344,-0.024902344,-1.0366211,0.0010642252,-0.022348728,-0.017027603,215.70001,36.0,-30.300001,41.235294,-128.91751,0.0,1,0,0,3.6796367,3.0702677,false,0.0
53164,-0.009277344,-0.024902344,-1.0366211,0.0010642252,-0.022348728,-0.017027603,215.70001,36.0,-30.300001,41.235294,-128.91751,0.0,1,0,0,3.6796367,3.0702677,false,0.0
53164,-0.009277344,-0.024902344,-1.0366211,0.0010642252,-0.022348728,-0.017027603,215.70001,36.0,-30.300001,41.235294,-128.91751,0.0,1,0,0,3.6796367,3.0702677,false,0.0
53164,-0.009277344,-0.024902344,-1.0366211,0.0010642252,-0.022348728,-0.017027603,215.70001,36.0,-30.300001,41.235294,-128.91751,0.0,1,0,0,3.6796367,3.0702677,false,0.0
53165,-0.009277344,-0.024902344,-1.0366211,0.0010642252,-0.022348728,-0.017027603,215.70001,36.0,-30.300001,41.235294,-128.91751,0.0,1,0,0,3.6796367,3.0702677,false,0.0
53165,-0.009277344,-0.024902344,-1.0366211,0.0010642252,-0.022348728,-0.017027603,215.70001,36.0,-30.300001,41.235294,-128.91751,0.0,1,0,0,3.6796367,3.0702677,false,0.0
53165,-0.009277344,-0.024902344,-1.0366211,0.0010642252,-0.022348728,-0.017027603,215.70001,36.0,-30.300001,41.235294,-128.91751,0.0,1,0,0,3.6796367,3.0702677,false,0.0
53165,-0.009277344,-0.024902344,-1.0366211,0.0010642252,-0.022348728,-0.017027603,215.70001,36.0,-30.300001,41.235294,-128.91751,0.0,1,0,0,3.6796367,3.0702677,false,0.0
53165,-0.009277344,-0.024902344,-1.0366211,0.0010642252,-0.022348728,-0.017027603,215.70001,36.0,-30.300001,41.235294,-128.91751,0.0,1,0,0,3.6796367,3.0702677,false,0.0
53165,-0.009277344,-0.024902344,-1.0366211,0.0010642252,-0.022348728,-0.017027603,215.70001,36.0,-30.300001,41.235294,-128.91751,0.0,1,0,0,3.6796367,3.0702677,false,0.0
53165,-0.009277344,-0.024902344,-1.0366211,0.0010642252,-0.022348728,-0.017027603,215.70001,36.0,-30.300001,41.235294,-128.91751,0.0,1,0,0,3.6796367,3.0702677,false,0.0
53165,-0.009277344,-0.024902344,-1.0366211,0.0010642252,-0.022348728,-0.017027603,215.70001,36.0,-30.300001,41.235294,-128.91751,0.0,1,0,0,3.6796367,3.0702677,false,0.0
53165,-0.009277344,-0.024902344,-1.0366211,0.0010642252,-0.022348728,-0.017027603,215.70001,36.0,-30.300001,41.235294,-128.91751,0.0,1,0,0,3.6796367,3.0702677,false,0.0
53165,-0.009277344,-0.024902344,-1.0366211,0.0010642252,-0.022348728,-0.017027603,215.70001,36.0,-30.300001,41.235294,-128.91751,0.0,1,0,0,3.6796367,3.0702677,false,0.0
53165,-0.009277344,-0.024902344,-1.0366211,0.0010642252,-0.022348728,-0.017027603,215.70001,36.0,-30.300001,41.235294,-128.91751,0.0,1,0,0,3.6796367,3.0702677,false,0.0
53165,-0.009277344,-0.024902344,-1.0366211,0.0010642252,-0.022348728,-0.017027603,215.70001,36.0,-30.300001,41.235294,-128.91751,0.0,1,0,0,3.6796367,3.0702677,false,0.0
53165,-0.009277344,-0.024902344,-1.0366211,0.0010642252,-0.022348728,-0.017027603,215.70001,36.0,-30.300001,41.235294,-128.91751,0.0,1,0,0,3.6796367,3.0702677,false,0.0
53165,-0.009277344,-0.024902344,-1.0366211,0.0010642252,-0.022348728,-0.017027603,215.70001,36.0,-30.300001,41.235294,-128.91751,0.0,1,0,0,3.6796367,3.0702677,false,0.0
53165,-0.009277344,-0.024902344,-1.0366211,0.0010642252,-0.022348728,-0.017027603,215.70001,36.0,-30.300001,41.235294,-128.91751,0.0,1,0,0,3.6796367,3.0702677,false,0.0
53165,-0.009277344,-0.024902344,-1.0366211,0.0010642252,-0.022348728,-0.017027603,215.70001,36.0,-30.300001,41.235294,-128.91751,0.0,1,0,0,3.6796367,3.0702677,false,0.0
53165,-0.009277344,-0.024902344,-1.0366211,0.0010642252,-0.022348728,-0.017027603,215.70001,36.0,-30.300001,41.235294,-128.91751,0.0,1,0,0,3.6796367,3.0702677,false,0.0
53165,-0.010253906,-0.021972656,-1.0390625,0.0021284504,-0.024477178,-0.018091828,215.70001,36.9,-31.500002,41.255882,-128.91751,0.0,1,0,0,3.7030594,3.0820172,false,0.0
53215,-0.010253906,-0.021972656,-1.0390625,0.0021284504,-0.024477178,-0.018091828,215.70001,36.9,-31.500002,41.255882,-128.91751,0.0,1,0,0,3.7030594,3.0820172,false,0.0
53215,-0.010253906,-0.021972656,-1.0390625,0.0021284504,-0.024477178,-0.018091828,215.70001,36.9,-31.500002,41.255882,-128.91751,0.0,1,0,0,3.7030594,3.0820172,false,0.0
53215,-0.010253906,-0.021972656,-1.0390625,0.0021284504,-0.024477178,-0.018091828,215.70001,36.9,-31.500002,41.255882,-128.91751,0.0,1,0,0,3.7030594,3.0820172,false,0.0
53215,-0.010253906,-0.021972656,-1.0390625,0.0021284504,-0.024477178,-0.018091828,215.70001,36.9,-31.500002,41.255882,-128.91751,0.0,1,0,0,3.7030594,3.0820172,false,0.0
53215,-0.010253906,-0.021972656,-1.0390625,0.0021284504,-0.024477178,-0.018091828,215.70001,36.9,-31.500002,41.255882,-128.91751,0.0,1,0,0,3.7030594,3.0820172,false,0.0
53215,-0.010253906,-0.021972656,-1.0390625,0.0021284504,-0.024477178,-0.018091828,215.70001,36.9,-31.500002,41.255882,-128.91751,0.0,1,0,0,3.7030594,3.0820172,false,0.0
53215,-0.010253906,-0.021972656,-1.0390625,0.0021284504,-0.024477178,-0.018091828,215.70001,36.9,-31.500002,41.255882,-128.91751,0.0,1,0,0,3.7030594,3.0820172,false,0.0
53215,-0.010253906,-0.021972656,-1.0390625,0.0021284504,-0.024477178,-0.018091828,215.70001,36.9,-31.500002,41.255882,-128.91751,0.0,1,0,0,3.7030594,3.0820172,false,0.0
53215,-0.010253906,-0.021972656,-1.0390625,0.0021284504,-0.024477178,-0.018091828,215.70001,36.9,-31.500002,41.255882,-128.91751,0.0,1,0,0,3.7030594,3.0820172,false,0.0
53215,-0.010253906,-0.021972656,-1.0390625,0.0021284504,-0.024477178,-0.018091828,215.70001,36.9,-31.500002,41.255882,-128.91751,0.0,1,0,0,3.7030594,3.0820172,false,0.0
53215,-0.010253906,-0.021972656,-1.0390625,0.0021284504,-0.024477178,-0.018091828,215.70001,36.9,-31.500002,41.255882,-128.91751,0.0,1,0,0,3.7030594,3.0820172,false,0.0
53215,-0.010253906,-0.021972656,-1.0390625,0.0021284504,-0.024477178,-0.018091828,215.70001,36.9,-31.500002,41.255882,-128.91751,0.0,1,0,0,3.7030594,3.0820172,false,0.0
53216,-0.010253906,-0.021972656,-1.0390625,0.0021284504,-0.024477178,-0.018091828,215.70001,36.9,-31.500002,41.255882,-128.91751,0.0,1,0,0,3.7030594,3.0820172,false,0.0
53216,-0.010253906,-0.021972656,-1.0390625,0.0021284504,-0.024477178,-0.018091828,215.70001,36.9,-31.500002,41.255882,-128.91751,0.0,1,0,0,3.7030594,3.0820172,false,0.0
53216,-0.010253906,-0.021972656,-1.0390625,0.0021284504,-0.024477178,-0.018091828,215.70001,36.9,-31.500002,41.255882,-128.91751,0.0,1,0,0,3.7030594,3.0820172,false,0.0
53216,-0.010253906,-0.021972656,-1.0390625,0.0021284504,-0.024477178,-0.018091828,215.70001,36.9,-31.500002,41.255882,-128.91751,0.0,1,0,0,3.7030594,3.0820172,false,0.0
53216,-0.010253906,-0.021972656,-1.0390625,0.0021284504,-0.024477178,-0.018091828,215.70001,36.9,-31.500002,41.255882,-128.91751,0.0,1,0,0,3.7030594,3.0820172,false,0.0
53216,-0.010253906,-0.021972656,-1.0390625,0.0021284504,-0.024477178,-0.018091828,215.70001,36.9,-31.500002,41.255882,-128.91751,0.0,1,0,0,3.7030594,3.0820172,false,0.0
53216,-0.010253906,-0.021972656,-1.0390625,0.0021284504,-0.024477178,-0.018091828,215.70001,36.9,-31.500002,41.255882,-128.91751,0.0,1,0,0,3.7030594,3.0820172,false,0.0
53216,-0.010253906,-0.021972656,-1.0390625,0.0021284504,-0.024477178,-0.018091828,215.70001,36.9,-31.500002,41.255882,-128.91751,0.0,1,0,0,3.7030594,3.0820172,false,0.0
53216,-0.010253906,-0.021972656,-1.0390625,0.0021284504,-0.024477178,-0.018091828,215.70001,36.9,-31.500002,41.255882,-128.91751,0.0,1,0,0,3.7030594,3.0820172,false,0.0
53216,-0.010253906,-0.021972656,-1.0390625,0.0021284504,-0.024477178,-0.018091828,215.70001,36.9,-31.500002,41.255882,-128.91751,0.0,1,0,0,3.7030594,3.0820172,false,0.0
53216,-0.010253906,-0.021972656,-1.0390625,0.0021284504,-0.024477178,-0.018091828,215.70001,36.9,-31.500002,41.255882,-128.91751,0.0,1,0,0,3.7030594,3.0820172,false,0.0
53216,-0.010253906,-0.021972656,-1.0390625,0.0021284504,-0.024477178,-0.018091828,215.70001,36.9,-31.500002,41.255882,-128.91751,0.0,1,0,0,3.7030594,3.0820172,false,0.0
53216,-0.010253906,-0.021972656,-1.0390625,0.0021284504,-0.024477178,-0.018091828,215.70001,36.9,-31.500002,41.255882,-128.91751,0.0,1,0,0,3.7030594,3.0820172,false,0.0
53216,-0.010253906,-0.021972656,-1.0390625,0.0021284504,-0.024477178,-0.018091828,215.70001,36.9,-31.500002,41.255882,-128.91751,0.0,1,0,0,3.7030594,3.0820172,false,0.0
53216,-0.010253906,-0.021972656,-1.0390625,0.0021284504,-0.024477178,-0.018091828,215.70001,36.9,-31.500002,41.255882,-128.91751,0.0,1,0,0,3.7030594,3.0820172,false,0.0
53216,-0.010253906,-0.021972656,-1.0390625,0.0021284504,-0.024477178,-0.018091828,215.70001,36.9,-31.500002,41.255882,-128.91751,0.0,1,0,0,3.7030594,3.0820172,false,0.0
53216,-0.010253906,-0.021972656,-1.0390625,0.0021284504,-0.024477178,-0.018091828,215.70001,36.9,-31.500002,41.255882,-128.91751,0.0,1,0,0,3.7030594,3.0820172,false,0.0
53216,-0.010253906,-0.021972656,-1.0390625,0.0021284504,-0.024477178,-0.018091828,215.70001,36.9,-31.500002,41.255882,-128.91751,0.0,1,0,0,3.7030594,3.0820172,false,0.0
53216,-0.010253906,-0.021972656,-1.0390625,0.0021284504,-0.024477178,-0.018091828,215.70001,36.9,-31.500002,41.255882,-128.91751,0.0,1,0,0,3.7030594,3.0820172,false,0.0
53216,-0.010253906,-0.021972656,-1.0390625,0.0021284504,-0.024477178,-0.018091828,215.70001,36.9,-31.500002,41.255882,-128.91751,0.0,1,0,0,3.7030594,3.0820172,false,0.0
53216,-0.010253906,-0.021972656,-1.0390625,0.0021284504,-0.024477178,-0.018091828,215.70001,36.9,-31.500002,41.255882,-128.91751,0.0,1,0,0,3.7030594,3.0820172,false,0.0
53216,-0.010253906,-0.021972656,-1.0390625,0.0021284504,-0.024477178,-0.018091828,215.70001,36.9,-31.500002,41.255882,-128.91751,0.0,1,0,0,3.7030594,3.0820172,false,0.0
53216,-0.010253906,-0.021972656,-1.0390625,0.0021284504,-0.024477178,-0.018091828,215.70001,36.9,-31.500002,41.255882,-128.91751,0.0,1,0,0,3.7030594,3.0820172,false,0.0
53216,-0.010253906,-0.021972656,-1.0390625,0.0021284504,-0.024477178,-0.018091828,215.70001,36.9,-31.500002,41.255882,-128.91751,0.0,1,0,0,3.7030594,3.0820172,false,0.0
53216,-0.010253906,-0.021972656,-1.0390625,0.0021284504,-0.024477178,-0.018091828,215.70001,36.9,-31.500002,41.255882,-128.91751,0.0,1,0,0,3.7030594,3.0820172,false,0.0
53216,-0.010253906,-0.021972656,-1.0390625,0.0021284504,-0.024477178,-0.018091828,215.70001,36.9,-31.500002,41.255882,-128.91751,0.0,1,0,0,3.7030594,3.0820172,false,0.0
53216,-0.010253906,-0.021972656,-1.0390625,0.0021284504,-0.024477178,-0.018091828,215.70001,36.9,-31.500002,41.255882,-128.91751,0.0,1,0,0,3.7030594,3.0820172,false,0.0
53216,-0.010253906,-0.021972656,-1.0390625,0.0021284504,-0.024477178,-0.018091828,215.70001,36.9,-31.500002,41.255882,-128.91751,0.0,1,0,0,3.7030594,3.0820172,false,0.0
53216,-0.010253906,-0.021972656,-1.0390625,0.0021284504,-0.024477178,-0.018091828,215.70001,36.9,-31.500002,41.255882,-128.91751,0.0,1,0,0,3.7030594,3.0820172,false,0.0
53216,-0.010253906,-0.021972656,-1.0390625,0.0021284504,-0.024477178,-0.018091828,215.70001,36.9,-31.500002,41.255882,-128.91751,0.0,1,0,0,3.7030594,3.0820172,false,0.0
53216,-0.013671875,-0.021484375,-1.0405273,0.0021284504,-0.021284504,-0.015963377,219.3,35.4,-29.400002,41.241177,-128.91751,0.0,1,0,0,3.6913862,3.0936904,false,0.0
53261,-0.013671875,-0.021484375,-1.0405273,0.0021284504,-0.021284504,-0.015963377,219.3,35.4,-29.400002,41.241177,-128.91751,0.0,1,0,0,3.6913862,3.0936904,false,0.0
53261,-0.013671875,-0.021484375,-1.0405273,0.0021284504,-0.021284504,-0.015963377,219.3,35.4,-29.400002,41.241177,-128.91751,0.0,1,0,0,3.6913862,3.0936904,false,0.0
53261,-0.013671875,-0.021484375,-1.0405273,0.0021284504,-0.021284504,-0.015963377,219.3,35.4,-29.400002,41.241177,-128.91751,0.0,1,0,0,3.6913862,3.0936904,false,0.0
53261,-0.013671875,-0.021484375,-1.0405273,0.0021284504,-0.021284504,-0.015963377,219.3,35.4,-29.400002,41.241177,-128.91751,0.0,1,0,0,3.6913862,3.0936904,false,0.0
53261,-0.013671875,-0.021484375,-1.0405273,0.0021284504,-0.021284504,-0.015963377,219.3,35.4,-29.400002,41.241177,-128.91751,0.0,1,0,0,3.6913862,3.0936904,false,0.0
53262,-0.013671875,-0.021484375,-1.0405273,0.0021284504,-0.021284504,-0.015963377,219.3,35.4,-29.400002,41.241177,-128.91751,0.0,1,0,0,3.6913862,3.0936904,false,0.0
53262,-0.013671875,-0.021484375,-1.0405273,0.0021284504,-0.021284504,-0.015963377,219.3,35.4,-29.400002,41.241177,-128.91751,0.0,1,0,0,3.6913862,3.0936904,false,0.0
53262,-0.013671875,-0.021484375,-1.0405273,0.0021284504,-0.021284504,-0.015963377,219.3,35.4,-29.400002,41.241177,-128.91751,0.0,1,0,0,3.6913862,3.0936904,false,0.0
53262,-0.013671875,-0.021484375,-1.0405273,0.0021284504,-0.021284504,-0.015963377,219.3,35.4,-29.400002,41.241177,-128.91751,0.0,1,0,0,3.6913862,3.0936904,false,0.0
53262,-0.013671875,-0.021484375,-1.0405273,0.0021284504,-0.021284504,-0.015963377,219.3,35.4,-29.400002,41.241177,-128.91751,0.0,1,0,0,3.6913862,3.0936904,false,0.0
53262,-0.013671875,-0.021484375,-1.0405273,0.0021284504,-0.021284504,-0.015963377,219.3,35.4,-29.400002,41.241177,-128.91751,0.0,1,0,0,3.6913862,3.0936904,false,0.0
53262,-0.013671875,-0.021484375,-1.0405273,0.0021284504,-0.021284504,-0.015963377,219.3,35.4,-29.400002,41.241177,-128.91751,0.0,1,0,0,3.6913862,3.0936904,false,0.0
53262,-0.013671875,-0.021484375,-1.0405273,0.0021284504,-0.021284504,-0.015963377,219.3,35.4,-29.400002,41.241177,-128.91751,0.0,1,0,0,3.6913862,3.0936904,false,0.0
53262,-0.013671875,-0.021484375,-1.0405273,0.0021284504,-0.021284504,-0.015963377,219.3,35.4,-29.400002,41.241177,-128.91751,0.0,1,0,0,3.6913862,3.0936904,false,0.0
53262,-0.013671875,-0.021484375,-1.0405273,0.0021284504,-0.021284504,-0.015963377,219.3,35.4,-29.400002,41.241177,-128.91751,0.0,1,0,0,3.6913862,3.0936904,false,0.0
53262,-0.013671875,-0.021484375,-1.0405273,0.0021284504,-0.021284504,-0.015963377,219.3,35.4,-29.400002,41.241177,-128.91751,0.0,1,0,0,3.6913862,3.0936904,false,0.0
53262,-0.013671875,-0.021484375,-1.0405273,0.0021284504,-0.021284504,-0.015963377,219.3,35.4,-29.400002,41.241177,-128.91751,0.0,1,0,0,3.6913862,3.0936904,false,0.0
53262,-0.013671875,-0.021484375,-1.0405273,0.0021284504,-0.021284504,-0.015963377,219.3,35.4,-29.400002,41.241177,-128.91751,0.0,1,0,0,3.6913862,3.0936904,false,0.0
53262,-0.013671875,-0.021484375,-1.0405273,0.0021284504,-0.021284504,-0.015963377,219.3,35.4,-29.400002,41.241177,-128.91751,0.0,1,0,0,3.6913862,3.0936904,false,0.0
53262,-0.013671875,-0.021484375,-1.0405273,0.0021284504,-0.021284504,-0.015963377,219.3,35.4,-29.400002,41.241177,-128.91751,0.0,1,0,0,3.6913862,3.0936904,false,0.0
53262,-0.013671875,-0.021484375,-1.0405273,0.0021284504,-0.021284504,-0.015963377,219.3,35.4,-29.400002,41.241177,-128.91751,0.0,1,0,0,3.6913862,3.0936904,false,0.0
53262,-0.013671875,-0.021484375,-1.0405273,0.0021284504,-0.021284504,-0.015963377,219.3,35.4,-29.400002,41.241177,-128.91751,0.0,1,0,0,3.6913862,3.0936904,false,0.0
53262,-0.013671875,-0.021484375,-1.0405273,0.0021284504,-0.021284504,-0.015963377,219.3,35.4,-29.400002,41.241177,-128.91751,0.0,1,0,0,3.6913862,3.0936904,false,0.0
53262,-0.013671875,-0.021484375,-1.0405273,0.0021284504,-0.021284504,-0.015963377,219.3,35.4,-29.400002,41.241177,-128.91751,0.0,1,0,0,3.6913862,3.0936904,false,0.0
53262,-0.013671875,-0.021484375,-1.0405273,0.0021284504,-0.021284504,-0.015963377,219.3,35.4,-29.400002,41.241177,-128.91751,0.0,1,0,0,3.6913862,3.0936904,false,0.0
53262,-0.013671875,-0.021484375,-1.0405273,0.0021284504,-0.021284504,-0.015963377,219.3,35.4,-29.400002,41.241177,-128.91751,0.0,1,0,0,3.6913862,3.0936904,false,0.0
53262,-0.013671875,-0.021484375,-1.0405273,0.0021284504,-0.021284504,-0.015963377,219.3,35.4,-29.400002,41.241177,-128.91751,0.0,1,0,0,3.6913862,3.0936904,false,0.0
53262,-0.013671875,-0.021484375,-1.0405273,0.0021284504,-0.021284504,-0.015963377,219.3,35.4,-29.400002,41.241177,-128.91751,0.0,1,0,0,3.6913862,3.0936904,false,0.0
53262,-0.013671875,-0.021484375,-1.0405273,0.0021284504,-0.021284504,-0.015963377,219.3,35.4,-29.400002,41.241177,-128.91751,0.0,1,0,0,3.6913862,3.0936904,false,0.0
53262,-0.013671875,-0.021484375,-1.0405273,0.0021284504,-0.021284504,-0.015963377,219.3,35.4,-29.400002,41.241177,-128.91751,0.0,1,0,0,3.6913862,3.0936904,false,0.0
53262,-0.013671875,-0.021484375,-1.0405273,0.0021284504,-0.021284504,-0.015963377,219.3,35.4,-29.400002,41.241177,-128.91751,0.0,1,0,0,3.6913862,3.0936904,false,0.0
53262,-0.013671875,-0.021484375,-1.0405273,0.0021284504,-0.021284504,-0.015963377,219.3,35.4,-29.400002,41.241177,-128.91751,0.0,1,0,0,3.6913862,3.0936904,false,0.0
53262,-0.013671875,-0.021484375,-1.0405273,0.0021284504,-0.021284504,-0.015963377,219.3,35.4,-29.400002,41.241177,-128.91751,0.0,1,0,0,3.6913862,3.0936904,false,0.0
53262,-0.013671875,-0.021484375,-1.0405273,0.0021284504,-0.021284504,-0.015963377,219.3,35.4,-29.400002,41.241177,-128.91751,0.0,1,0,0,3.6913862,3.0936904,false,0.0
53262,-0.013671875,-0.021484375,-1.0405273,0.0021284504,-0.021284504,-0.015963377,219.3,35.4,-29.400002,41.241177,-128.91751,0.0,1,0,0,3.6913862,3.0936904,false,0.0
53263,-0.013671875,-0.021484375,-1.0405273,0.0021284504,-0.021284504,-0.015963377,219.3,35.4,-29.400002,41.241177,-128.91751,0.0,1,0,0,3.6913862,3.0936904,false,0.0
53263,-0.013671875,-0.021484375,-1.0405273,0.0021284504,-0.021284504,-0.015963377,219.3,35.4,-29.400002,41.241177,-128.91751,0.0,1,0,0,3.6913862,3.0936904,false,0.0
53263,-0.013671875,-0.021484375,-1.0405273,0.0021284504,-0.021284504,-0.015963377,219.3,35.4,-29.400002,41.241177,-128.91751,0.0,1,0,0,3.6913862,3.0936904,false,0.0
53263,-0.013671875,-0.021484375,-1.0405273,0.0021284504,-0.021284504,-0.015963377,219.3,35.4,-29.400002,41.241177,-128.91751,0.0,1,0,0,3.6913862,3.0936904,false,0.0
53263,-0.013671875,-0.021484375,-1.0405273,0.0021284504,-0.021284504,-0.015963377,219.3,35.4,-29.400002,41.241177,-128.91751,0.0,1,0,0,3.6913862,3.0936904,false,0.0
53263,-0.013671875,-0.021484375,-1.0405273,0.0021284504,-0.021284504,-0.015963377,219.3,35.4,-29.400002,41.241177,-128.91751,0.0,1,0,0,3.6913862,3.0936904,false,0.0
53263,-0.013671875,-0.021484375,-1.0405273,0.0021284504,-0.021284504,-0.015963377,219.3,35.4,-29.400002,41.241177,-128.91751,0.0,1,0,0,3.6913862,3.0936904,false,0.0
53263,-0.009765625,-0.018066406,-1.0332031,0.0021284504,-0.025541404,-0.015963377,217.50002,35.100002,-33.300003,41.185295,-128.91751,0.0,1,0,0,3.7030594,3.0761425,false,0.0
53306,-0.009765625,-0.018066406,-1.0332031,0.0021284504,-0.025541404,-0.015963377,217.50002,35.100002,-33.300003,41.185295,-128.91751,0.0,1,0,0,3.7030594,3.0761425,false,0.0
53306,-0.009765625,-0.018066406,-1.0332031,0.0021284504,-0.025541404,-0.015963377,217.50002,35.100002,-33.300003,41.185295,-128.91751,0.0,1,0,0,3.7030594,3.0761425,false,0.0
53307,-0.009765625,-0.018066406,-1.0332031,0.0021284504,-0.025541404,-0.015963377,217.50002,35.100002,-33.300003,41.185295,-128.91751,0.0,1,0,0,3.7030594,3.0761425,false,0.0
53308,-0.009765625,-0.018066406,-1.0332031,0.0021284504,-0.025541404,-0.015963377,217.50002,35.100002,-33.300003,41.185295,-128.91751,0.0,1,0,0,3.7030594,3.0761425,false,0.0
53308,-0.009765625,-0.018066406,-1.0332031,0.0021284504,-0.025541404,-0.015963377,217.50002,35.100002,-33.300003,41.185295,-128.91751,0.0,1,0,0,3.7030594,3.0761425,false,0.0
53308,-0.009765625,-0.018066406,-1.0332031,0.0021284504,-0.025541404,-0.015963377,217.50002,35.100002,-33.300003,41.185295,-128.91751,0.0,1,0,0,3.7030594,3.0761425,false,0.0
53308,-0.009765625,-0.018066406,-1.0332031,0.0021284504,-0.025541404,-0.015963377,217.50002,35.100002,-33.300003,41.185295,-128.91751,0.0,1,0,0,3.7030594,3.0761425,false,0.0
53308,-0.009765625,-0.018066406,-1.0332031,0.0021284504,-0.025541404,-0.015963377,217.50002,35.100002,-33.300003,41.185295,-128.91751,0.0,1,0,0,3.7030594,3.0761425,false,0.0
53308,-0.009765625,-0.018066406,-1.0332031,0.0021284504,-0.025541404,-0.015963377,217.50002,35.100002,-33.300003,41.185295,-128.91751,0.0,1,0,0,3.7030594,3.0761425,false,0.0
53308,-0.009765625,-0.018066406,-1.0332031,0.0021284504,-0.025541404,-0.015963377,217.50002,35.100002,-33.300003,41.185295,-128.91751,0.0,1,0,0,3.7030594,3.0761425,false,0.0
53308,-0.009765625,-0.018066406,-1.0332031,0.0021284504,-0.025541404,-0.015963377,217.50002,35.100002,-33.300003,41.185295,-128.91751,0.0,1,0,0,3.7030594,3.0761425,false,0.0
53308,-0.009765625,-0.018066406,-1.0332031,0.0021284504,-0.025541404,-0.015963377,217.50002,35.100002,-33.300003,41.185295,-128.91751,0.0,1,0,0,3.7030594,3.0761425,false,0.0
