timestamp_ms,accX,accY,accZ,omegaX,omegaY,omegaZ,magX,magY,magZ,temp,deg,duty,isStop,isCurve,isSlope,V_Lipo,V_Battery,isSlipping, slipMagnitude
25481,0.0,0.0,0.0,0.0,0.0,0.0,0.0,0.0,0.0,0.0,0.0,0.0,0,0,0,0.0,0.0,false,0.0
25481,0.0,0.0,0.0,0.0,0.0,0.0,0.0,0.0,0.0,0.0,0.0,0.0,0,0,0,0.0,0.0,false,0.0
25481,0.0,0.0,0.0,0.0,0.0,0.0,0.0,0.0,0.0,0.0,0.0,0.0,0,0,0,0.0,0.0,false,0.0
25481,0.0,0.0,0.0,0.0,0.0,0.0,0.0,0.0,0.0,0.0,0.0,0.0,0,0,0,0.0,0.0,false,0.0
25483,0.0,0.0,0.0,0.0,0.0,0.0,0.0,0.0,0.0,0.0,0.0,0.0,0,0,0,0.0,0.0,false,0.0
25483,0.0,0.0,0.0,0.0,0.0,0.0,0.0,0.0,0.0,0.0,0.0,0.0,0,0,0,0.0,0.0,false,0.0
25483,0.0,0.0,0.0,0.0,0.0,0.0,0.0,0.0,0.0,0.0,0.0,0.0,0,0,0,0.0,0.0,false,0.0
25483,0.0,0.0,0.0,0.0,0.0,0.0,0.0,0.0,0.0,0.0,0.0,0.0,0,0,0,0.0,0.0,false,0.0
25483,0.0,0.0,0.0,0.0,0.0,0.0,0.0,0.0,0.0,0.0,0.0,0.0,0,0,0,0.0,0.0,false,0.0
25483,0.0,0.0,0.0,0.0,0.0,0.0,0.0,0.0,0.0,0.0,0.0,0.0,0,0,0,0.0,0.0,false,0.0
25483,0.0,0.0,0.0,0.0,0.0,0.0,0.0,0.0,0.0,0.0,0.0,0.0,0,0,0,0.0,0.0,false,0.0
25483,0.0,0.0,0.0,0.0,0.0,0.0,0.0,0.0,0.0,0.0,0.0,0.0,0,0,0,0.0,0.0,false,0.0
25483,0.0,0.0,0.0,0.0,0.0,0.0,0.0,0.0,0.0,0.0,0.0,0.0,0,0,0,0.0,0.0,false,0.0
25483,0.0,0.0,0.0,0.0,0.0,0.0,0.0,0.0,0.0,0.0,0.0,0.0,0,0,0,0.0,0.0,false,0.0
25483,0.0,0.0,0.0,0.0,0.0,0.0,0.0,0.0,0.0,0.0,0.0,0.0,0,0,0,0.0,0.0,false,0.0
25484,0.0,0.0,0.0,0.0,0.0,0.0,0.0,0.0,0.0,0.0,0.0,0.0,0,0,0,0.0,0.0,false,0.0
25485,0.0,0.0,0.0,0.0,0.0,0.0,0.0,0.0,0.0,0.0,0.0,0.0,0,0,0,0.0,0.0,false,0.0
25485,0.0,0.0,0.0,0.0,0.0,0.0,0.0,0.0,0.0,0.0,0.0,0.0,0,0,0,0.0,0.0,false,0.0
25485,0.0,0.0,0.0,0.0,0.0,0.0,0.0,0.0,0.0,0.0,0.0,0.0,0,0,0,0.0,0.0,false,0.0
25485,0.0,0.0,0.0,0.0,0.0,0.0,0.0,0.0,0.0,0.0,0.0,0.0,0,0,0,0.0,0.0,false,0.0
25485,0.0,0.0,0.0,0.0,0.0,0.0,0.0,0.0,0.0,0.0,0.0,0.0,0,0,0,0.0,0.0,false,0.0
25485,0.0,0.0,0.0,0.0,0.0,0.0,0.0,0.0,0.0,0.0,0.0,0.0,0,0,0,0.0,0.0,false,0.0
25485,0.0,0.0,0.0,0.0,0.0,0.0,0.0,0.0,0.0,0.0,0.0,0.0,0,0,0,0.0,0.0,false,0.0
25485,0.0,0.0,0.0,0.0,0.0,0.0,0.0,0.0,0.0,0.0,0.0,0.0,0,0,0,0.0,0.0,false,0.0
25485,0.0,0.0,0.0,0.0,0.0,0.0,0.0,0.0,0.0,0.0,0.0,0.0,0,0,0,0.0,0.0,false,0.0
25485,0.0,0.0,0.0,0.0,0.0,0.0,0.0,0.0,0.0,0.0,0.0,0.0,0,0,0,0.0,0.0,false,0.0
25485,0.0,0.0,0.0,0.0,0.0,0.0,0.0,0.0,0.0,0.0,0.0,0.0,0,0,0,0.0,0.0,false,0.0
25485,0.0,0.0,0.0,0.0,0.0,0.0,0.0,0.0,0.0,0.0,0.0,0.0,0,0,0,0.0,0.0,false,0.0
25485,0.0,0.0,0.0,0.0,0.0,0.0,0.0,0.0,0.0,0.0,0.0,0.0,0,0,0,0.0,0.0,false,0.0
25485,0.0,0.0,0.0,0.0,0.0,0.0,0.0,0.0,0.0,0.0,0.0,0.0,0,0,0,0.0,0.0,false,0.0
25485,0.0,0.0,0.0,0.0,0.0,0.0,0.0,0.0,0.0,0.0,0.0,0.0,0,0,0,0.0,0.0,false,0.0
25485,0.0,0.0,0.0,0.0,0.0,0.0,0.0,0.0,0.0,0.0,0.0,0.0,0,0,0,0.0,0.0,false,0.0
25485,0.0,0.0,0.0,0.0,0.0,0.0,0.0,0.0,0.0,0.0,0.0,0.0,0,0,0,0.0,0.0,false,0.0
25485,0.0,0.0,0.0,0.0,0.0,0.0,0.0,0.0,0.0,0.0,0.0,0.0,0,0,0,0.0,0.0,false,0.0
25485,0.0,0.0,0.0,0.0,0.0,0.0,0.0,0.0,0.0,0.0,0.0,0.0,0,0,0,0.0,0.0,false,0.0
25485,0.0,0.0,0.0,0.0,0.0,0.0,0.0,0.0,0.0,0.0,0.0,0.0,0,0,0,0.0,0.0,false,0.0
25485,0.0,0.0,0.0,0.0,0.0,0.0,0.0,0.0,0.0,0.0,0.0,0.0,0,0,0,0.0,0.0,false,0.0
25485,0.0,0.0,0.0,0.0,0.0,0.0,0.0,0.0,0.0,0.0,0.0,0.0,0,0,0,0.0,0.0,false,0.0
25485,0.0,0.0,0.0,0.0,0.0,0.0,0.0,0.0,0.0,0.0,0.0,0.0,0,0,0,0.0,0.0,false,0.0
25485,0.0,0.0,0.0,0.0,0.0,0.0,0.0,0.0,0.0,0.0,0.0,0.0,0,0,0,0.0,0.0,false,0.0
25486,0.0,0.0,0.0,0.0,0.0,0.0,0.0,0.0,0.0,0.0,0.0,0.0,0,0,0,0.0,0.0,false,0.0
25486,0.0,0.0,0.0,0.0,0.0,0.0,0.0,0.0,0.0,0.0,0.0,0.0,0,0,0,0.0,0.0,false,0.0
25486,-0.009277344,-0.020507812,-1.0400391,-0.006385351,-0.007449576,0.0010642252,205.20001,13.8,-14.1,43.27941,173.03995,0.0,1,0,0,3.2635996,3.0820172,false,0.0
25572,-0.009277344,-0.020507812,-1.0400391,-0.006385351,-0.007449576,0.0010642252,205.20001,13.8,-14.1,43.27941,173.03995,0.0,1,0,0,3.2635996,3.0820172,false,0.0
25572,-0.009277344,-0.020507812,-1.0400391,-0.006385351,-0.007449576,0.0010642252,205.20001,13.8,-14.1,43.27941,173.03995,0.0,1,0,0,3.2635996,3.0820172,false,0.0
25572,-0.009277344,-0.020507812,-1.0400391,-0.006385351,-0.007449576,0.0010642252,205.20001,13.8,-14.1,43.27941,173.03995,0.0,1,0,0,3.2635996,3.0820172,false,0.0
25572,-0.009277344,-0.020507812,-1.0400391,-0.006385351,-0.007449576,0.0010642252,205.20001,13.8,-14.1,43.27941,173.03995,0.0,1,0,0,3.2635996,3.0820172,false,0.0
25598,-0.009277344,-0.020507812,-1.0400391,-0.006385351,-0.007449576,0.0010642252,205.20001,13.8,-14.1,43.27941,173.03995,0.0,1,0,0,3.2635996,3.0820172,false,0.0
25598,-0.009277344,-0.020507812,-1.0400391,-0.006385351,-0.007449576,0.0010642252,205.20001,13.8,-14.1,43.27941,173.03995,0.0,1,0,0,3.2635996,3.0820172,false,0.0
25598,-0.009277344,-0.020507812,-1.0400391,-0.006385351,-0.007449576,0.0010642252,205.20001,13.8,-14.1,43.27941,173.03995,0.0,1,0,0,3.2635996,3.0820172,false,0.0
25598,-0.009277344,-0.020507812,-1.0400391,-0.006385351,-0.007449576,0.0010642252,205.20001,13.8,-14.1,43.27941,173.03995,0.0,1,0,0,3.2635996,3.0820172,false,0.0
25598,-0.009277344,-0.020507812,-1.0400391,-0.006385351,-0.007449576,0.0010642252,205.20001,13.8,-14.1,43.27941,173.03995,0.0,1,0,0,3.2635996,3.0820172,false,0.0
25598,-0.009277344,-0.020507812,-1.0400391,-0.006385351,-0.007449576,0.0010642252,205.20001,13.8,-14.1,43.27941,173.03995,0.0,1,0,0,3.2635996,3.0820172,false,0.0
25599,-0.009277344,-0.020507812,-1.0400391,-0.006385351,-0.007449576,0.0010642252,205.20001,13.8,-14.1,43.27941,173.03995,0.0,1,0,0,3.2635996,3.0820172,false,0.0
25599,-0.009277344,-0.020507812,-1.0400391,-0.006385351,-0.007449576,0.0010642252,205.20001,13.8,-14.1,43.27941,173.03995,0.0,1,0,0,3.2635996,3.0820172,false,0.0
25599,-0.009277344,-0.020507812,-1.0400391,-0.006385351,-0.007449576,0.0010642252,205.20001,13.8,-14.1,43.27941,173.03995,0.0,1,0,0,3.2635996,3.0820172,false,0.0
25599,-0.009277344,-0.020507812,-1.0400391,-0.006385351,-0.007449576,0.0010642252,205.20001,13.8,-14.1,43.27941,173.03995,0.0,1,0,0,3.2635996,3.0820172,false,0.0
25599,-0.009277344,-0.020507812,-1.0400391,-0.006385351,-0.007449576,0.0010642252,205.20001,13.8,-14.1,43.27941,173.03995,0.0,1,0,0,3.2635996,3.0820172,false,0.0
25599,-0.009277344,-0.020507812,-1.0400391,-0.006385351,-0.007449576,0.0010642252,205.20001,13.8,-14.1,43.27941,173.03995,0.0,1,0,0,3.2635996,3.0820172,false,0.0
25599,-0.009277344,-0.020507812,-1.0400391,-0.006385351,-0.007449576,0.0010642252,205.20001,13.8,-14.1,43.27941,173.03995,0.0,1,0,0,3.2635996,3.0820172,false,0.0
25600,-0.009277344,-0.020507812,-1.0400391,-0.006385351,-0.007449576,0.0010642252,205.20001,13.8,-14.1,43.27941,173.03995,0.0,1,0,0,3.2635996,3.0820172,false,0.0
25600,-0.009277344,-0.020507812,-1.0400391,-0.006385351,-0.007449576,0.0010642252,205.20001,13.8,-14.1,43.27941,173.03995,0.0,1,0,0,3.2635996,3.0820172,false,0.0
25600,-0.009277344,-0.020507812,-1.0400391,-0.006385351,-0.007449576,0.0010642252,205.20001,13.8,-14.1,43.27941,173.03995,0.0,1,0,0,3.2635996,3.0820172,false,0.0
25600,-0.009277344,-0.020507812,-1.0400391,-0.006385351,-0.007449576,0.0010642252,205.20001,13.8,-14.1,43.27941,173.03995,0.0,1,0,0,3.2635996,3.0820172,false,0.0
25600,-0.009277344,-0.020507812,-1.0400391,-0.006385351,-0.007449576,0.0010642252,205.20001,13.8,-14.1,43.27941,173.03995,0.0,1,0,0,3.2635996,3.0820172,false,0.0
25600,-0.009277344,-0.020507812,-1.0400391,-0.006385351,-0.007449576,0.0010642252,205.20001,13.8,-14.1,43.27941,173.03995,0.0,1,0,0,3.2635996,3.0820172,false,0.0
25600,-0.009277344,-0.020507812,-1.0400391,-0.006385351,-0.007449576,0.0010642252,205.20001,13.8,-14.1,43.27941,173.03995,0.0,1,0,0,3.2635996,3.0820172,false,0.0
25600,-0.009277344,-0.020507812,-1.0400391,-0.006385351,-0.007449576,0.0010642252,205.20001,13.8,-14.1,43.27941,173.03995,0.0,1,0,0,3.2635996,3.0820172,false,0.0
25600,-0.009277344,-0.020507812,-1.0400391,-0.006385351,-0.007449576,0.0010642252,205.20001,13.8,-14.1,43.27941,173.03995,0.0,1,0,0,3.2635996,3.0820172,false,0.0
25601,-0.009277344,-0.020507812,-1.0400391,-0.006385351,-0.007449576,0.0010642252,205.20001,13.8,-14.1,43.27941,173.03995,0.0,1,0,0,3.2635996,3.0820172,false,0.0
25601,-0.009277344,-0.020507812,-1.0400391,-0.006385351,-0.007449576,0.0010642252,205.20001,13.8,-14.1,43.27941,173.03995,0.0,1,0,0,3.2635996,3.0820172,false,0.0
25601,-0.009277344,-0.020507812,-1.0400391,-0.006385351,-0.007449576,0.0010642252,205.20001,13.8,-14.1,43.27941,173.03995,0.0,1,0,0,3.2635996,3.0820172,false,0.0
25601,-0.009277344,-0.020507812,-1.0400391,-0.006385351,-0.007449576,0.0010642252,205.20001,13.8,-14.1,43.27941,173.03995,0.0,1,0,0,3.2635996,3.0820172,false,0.0
25601,-0.009277344,-0.020507812,-1.0400391,-0.006385351,-0.007449576,0.0010642252,205.20001,13.8,-14.1,43.27941,173.03995,0.0,1,0,0,3.2635996,3.0820172,false,0.0
25601,-0.009277344,-0.020507812,-1.0400391,-0.006385351,-0.007449576,0.0010642252,205.20001,13.8,-14.1,43.27941,173.03995,0.0,1,0,0,3.2635996,3.0820172,false,0.0
25601,-0.009277344,-0.020507812,-1.0400391,-0.006385351,-0.007449576,0.0010642252,205.20001,13.8,-14.1,43.27941,173.03995,0.0,1,0,0,3.2635996,3.0820172,false,0.0
25601,-0.009277344,-0.020507812,-1.0400391,-0.006385351,-0.007449576,0.0010642252,205.20001,13.8,-14.1,43.27941,173.03995,0.0,1,0,0,3.2635996,3.0820172,false,0.0
25601,-0.009277344,-0.020507812,-1.0400391,-0.006385351,-0.007449576,0.0010642252,205.20001,13.8,-14.1,43.27941,173.03995,0.0,1,0,0,3.2635996,3.0820172,false,0.0
25601,-0.009277344,-0.020507812,-1.0400391,-0.006385351,-0.007449576,0.0010642252,205.20001,13.8,-14.1,43.27941,173.03995,0.0,1,0,0,3.2635996,3.0820172,false,0.0
25601,-0.009277344,-0.020507812,-1.0400391,-0.006385351,-0.007449576,0.0010642252,205.20001,13.8,-14.1,43.27941,173.03995,0.0,1,0,0,3.2635996,3.0820172,false,0.0
25601,-0.009277344,-0.020507812,-1.0400391,-0.006385351,-0.007449576,0.0010642252,205.20001,13.8,-14.1,43.27941,173.03995,0.0,1,0,0,3.2635996,3.0820172,false,0.0
25601,-0.009277344,-0.020507812,-1.0400391,-0.006385351,-0.007449576,0.0010642252,205.20001,13.8,-14.1,43.27941,173.03995,0.0,1,0,0,3.2635996,3.0820172,false,0.0
25601,-0.009277344,-0.020507812,-1.0400391,-0.006385351,-0.007449576,0.0010642252,205.20001,13.8,-14.1,43.27941,173.03995,0.0,1,0,0,3.2635996,3.0820172,false,0.0
25601,-0.009277344,-0.020507812,-1.0400391,-0.006385351,-0.007449576,0.0010642252,205.20001,13.8,-14.1,43.27941,173.03995,0.0,1,0,0,3.2635996,3.0820172,false,0.0
25601,-0.009277344,-0.020507812,-1.0400391,-0.006385351,-0.007449576,0.0010642252,205.20001,13.8,-14.1,43.27941,173.03995,0.0,1,0,0,3.2635996,3.0820172,false,0.0
25601,-0.0078125,-0.021484375,-1.0361328,-0.006385351,-0.004256901,-0.0010642252,202.50002,12.3,-12.0,43.311764,173.03995,0.0,1,0,0,3.2694743,3.0820172,false,0.0
25602,-0.0078125,-0.021484375,-1.0361328,-0.006385351,-0.004256901,-0.0010642252,202.50002,12.3,-12.0,43.311764,173.03995,0.0,1,0,0,3.2694743,3.0820172,false,0.0
25602,-0.0078125,-0.021484375,-1.0361328,-0.006385351,-0.004256901,-0.0010642252,202.50002,12.3,-12.0,43.311764,173.03995,0.0,1,0,0,3.2694743,3.0820172,false,0.0
25602,-0.0078125,-0.021484375,-1.0361328,-0.006385351,-0.004256901,-0.0010642252,202.50002,12.3,-12.0,43.311764,173.03995,0.0,1,0,0,3.2694743,3.0820172,false,0.0
25602,-0.0078125,-0.021484375,-1.0361328,-0.006385351,-0.004256901,-0.0010642252,202.50002,12.3,-12.0,43.311764,173.03995,0.0,1,0,0,3.2694743,3.0820172,false,0.0
25602,-0.0078125,-0.021484375,-1.0361328,-0.006385351,-0.004256901,-0.0010642252,202.50002,12.3,-12.0,43.311764,173.03995,0.0,1,0,0,3.2694743,3.0820172,false,0.0
25602,-0.0078125,-0.021484375,-1.0361328,-0.006385351,-0.004256901,-0.0010642252,202.50002,12.3,-12.0,43.311764,173.03995,0.0,1,0,0,3.2694743,3.0820172,false,0.0
25602,-0.0078125,-0.021484375,-1.0361328,-0.006385351,-0.004256901,-0.0010642252,202.50002,12.3,-12.0,43.311764,173.03995,0.0,1,0,0,3.2694743,3.0820172,false,0.0
25602,-0.0078125,-0.021484375,-1.0361328,-0.006385351,-0.004256901,-0.0010642252,202.50002,12.3,-12.0,43.311764,173.03995,0.0,1,0,0,3.2694743,3.0820172,false,0.0
25602,-0.0078125,-0.021484375,-1.0361328,-0.006385351,-0.004256901,-0.0010642252,202.50002,12.3,-12.0,43.311764,173.03995,0.0,1,0,0,3.2694743,3.0820172,false,0.0
25602,-0.0078125,-0.021484375,-1.0361328,-0.006385351,-0.004256901,-0.0010642252,202.50002,12.3,-12.0,43.311764,173.03995,0.0,1,0,0,3.2694743,3.0820172,false,0.0
25602,-0.0078125,-0.021484375,-1.0361328,-0.006385351,-0.004256901,-0.0010642252,202.50002,12.3,-12.0,43.311764,173.03995,0.0,1,0,0,3.2694743,3.0820172,false,0.0
25602,-0.0078125,-0.021484375,-1.0361328,-0.006385351,-0.004256901,-0.0010642252,202.50002,12.3,-12.0,43.311764,173.03995,0.0,1,0,0,3.2694743,3.0820172,false,0.0
25602,-0.0078125,-0.021484375,-1.0361328,-0.006385351,-0.004256901,-0.0010642252,202.50002,12.3,-12.0,43.311764,173.03995,0.0,1,0,0,3.2694743,3.0820172,false,0.0
25602,-0.0078125,-0.021484375,-1.0361328,-0.006385351,-0.004256901,-0.0010642252,202.50002,12.3,-12.0,43.311764,173.03995,0.0,1,0,0,3.2694743,3.0820172,false,0.0
25602,-0.0078125,-0.021484375,-1.0361328,-0.006385351,-0.004256901,-0.0010642252,202.50002,12.3,-12.0,43.311764,173.03995,0.0,1,0,0,3.2694743,3.0820172,false,0.0
25602,-0.0078125,-0.021484375,-1.0361328,-0.006385351,-0.004256901,-0.0010642252,202.50002,12.3,-12.0,43.311764,173.03995,0.0,1,0,0,3.2694743,3.0820172,false,0.0
25602,-0.0078125,-0.021484375,-1.0361328,-0.006385351,-0.004256901,-0.0010642252,202.50002,12.3,-12.0,43.311764,173.03995,0.0,1,0,0,3.2694743,3.0820172,false,0.0
25602,-0.0078125,-0.021484375,-1.0361328,-0.006385351,-0.004256901,-0.0010642252,202.50002,12.3,-12.0,43.311764,173.03995,0.0,1,0,0,3.2694743,3.0820172,false,0.0
25602,-0.0078125,-0.021484375,-1.0361328,-0.006385351,-0.004256901,-0.0010642252,202.50002,12.3,-12.0,43.311764,173.03995,0.0,1,0,0,3.2694743,3.0820172,false,0.0
25602,-0.0078125,-0.021484375,-1.0361328,-0.006385351,-0.004256901,-0.0010642252,202.50002,12.3,-12.0,43.311764,173.03995,0.0,1,0,0,3.2694743,3.0820172,false,0.0
25602,-0.0078125,-0.021484375,-1.0361328,-0.006385351,-0.004256901,-0.0010642252,202.50002,12.3,-12.0,43.311764,173.03995,0.0,1,0,0,3.2694743,3.0820172,false,0.0
25602,-0.0078125,-0.021484375,-1.0361328,-0.006385351,-0.004256901,-0.0010642252,202.50002,12.3,-12.0,43.311764,173.03995,0.0,1,0,0,3.2694743,3.0820172,false,0.0
25602,-0.0078125,-0.021484375,-1.0361328,-0.006385351,-0.004256901,-0.0010642252,202.50002,12.3,-12.0,43.311764,173.03995,0.0,1,0,0,3.2694743,3.0820172,false,0.0
25602,-0.0078125,-0.021484375,-1.0361328,-0.006385351,-0.004256901,-0.0010642252,202.50002,12.3,-12.0,43.311764,173.03995,0.0,1,0,0,3.2694743,3.0820172,false,0.0
25602,-0.0078125,-0.021484375,-1.0361328,-0.006385351,-0.004256901,-0.0010642252,202.50002,12.3,-12.0,43.311764,173.03995,0.0,1,0,0,3.2694743,3.0820172,false,0.0
25602,-0.0078125,-0.021484375,-1.0361328,-0.006385351,-0.004256901,-0.0010642252,202.50002,12.3,-12.0,43.311764,173.03995,0.0,1,0,0,3.2694743,3.0820172,false,0.0
25602,-0.0078125,-0.021484375,-1.0361328,-0.006385351,-0.004256901,-0.0010642252,202.50002,12.3,-12.0,43.311764,173.03995,0.0,1,0,0,3.2694743,3.0820172,false,0.0
25602,-0.0078125,-0.021484375,-1.0361328,-0.006385351,-0.004256901,-0.0010642252,202.50002,12.3,-12.0,43.311764,173.03995,0.0,1,0,0,3.2694743,3.0820172,false,0.0
25619,-0.0078125,-0.021484375,-1.0361328,-0.006385351,-0.004256901,-0.0010642252,202.50002,12.3,-12.0,43.311764,173.03995,0.0,1,0,0,3.2694743,3.0820172,false,0.0
25620,-0.0078125,-0.021484375,-1.0361328,-0.006385351,-0.004256901,-0.0010642252,202.50002,12.3,-12.0,43.311764,173.03995,0.0,1,0,0,3.2694743,3.0820172,false,0.0
25620,-0.0078125,-0.021484375,-1.0361328,-0.006385351,-0.004256901,-0.0010642252,202.50002,12.3,-12.0,43.311764,173.03995,0.0,1,0,0,3.2694743,3.0820172,false,0.0
25620,-0.0078125,-0.021484375,-1.0361328,-0.006385351,-0.004256901,-0.0010642252,202.50002,12.3,-12.0,43.311764,173.03995,0.0,1,0,0,3.2694743,3.0820172,false,0.0
25620,-0.0078125,-0.021484375,-1.0361328,-0.006385351,-0.004256901,-0.0010642252,202.50002,12.3,-12.0,43.311764,173.03995,0.0,1,0,0,3.2694743,3.0820172,false,0.0
25620,-0.0078125,-0.021484375,-1.0361328,-0.006385351,-0.004256901,-0.0010642252,202.50002,12.3,-12.0,43.311764,173.03995,0.0,1,0,0,3.2694743,3.0820172,false,0.0
25620,-0.0078125,-0.021484375,-1.0361328,-0.006385351,-0.004256901,-0.0010642252,202.50002,12.3,-12.0,43.311764,173.03995,0.0,1,0,0,3.2694743,3.0820172,false,0.0
25620,-0.0078125,-0.021484375,-1.0361328,-0.006385351,-0.004256901,-0.0010642252,202.50002,12.3,-12.0,43.311764,173.03995,0.0,1,0,0,3.2694743,3.0820172,false,0.0
25620,-0.0078125,-0.021484375,-1.0361328,-0.006385351,-0.004256901,-0.0010642252,202.50002,12.3,-12.0,43.311764,173.03995,0.0,1,0,0,3.2694743,3.0820172,false,0.0
25620,-0.0078125,-0.021484375,-1.0361328,-0.006385351,-0.004256901,-0.0010642252,202.50002,12.3,-12.0,43.311764,173.03995,0.0,1,0,0,3.2694743,3.0820172,false,0.0
25620,-0.0078125,-0.021484375,-1.0361328,-0.006385351,-0.004256901,-0.0010642252,202.50002,12.3,-12.0,43.311764,173.03995,0.0,1,0,0,3.2694743,3.0820172,false,0.0
25620,-0.0078125,-0.021484375,-1.0361328,-0.006385351,-0.004256901,-0.0010642252,202.50002,12.3,-12.0,43.311764,173.03995,0.0,1,0,0,3.2694743,3.0820172,false,0.0
25620,-0.0078125,-0.021484375,-1.0361328,-0.006385351,-0.004256901,-0.0010642252,202.50002,12.3,-12.0,43.311764,173.03995,0.0,1,0,0,3.2694743,3.0820172,false,0.0
25620,-0.0078125,-0.021484375,-1.0361328,-0.006385351,-0.004256901,-0.0010642252,202.50002,12.3,-12.0,43.311764,173.03995,0.0,1,0,0,3.2694743,3.0820172,false,0.0
25621,-0.008300781,-0.020507812,-1.0356445,-0.006385351,-0.006385351,0.0,204.6,14.400001,-15.3,43.229412,173.03995,0.0,1,0,0,3.240177,3.0702677,false,0.0
25631,-0.008300781,-0.020507812,-1.0356445,-0.006385351,-0.006385351,0.0,204.6,14.400001,-15.3,43.229412,173.03995,0.0,1,0,0,3.240177,3.0702677,false,0.0
25631,-0.008300781,-0.020507812,-1.0356445,-0.006385351,-0.006385351,0.0,204.6,14.400001,-15.3,43.229412,173.03995,0.0,1,0,0,3.240177,3.0702677,false,0.0
25631,-0.008300781,-0.020507812,-1.0356445,-0.006385351,-0.006385351,0.0,204.6,14.400001,-15.3,43.229412,173.03995,0.0,1,0,0,3.240177,3.0702677,false,0.0
25631,-0.008300781,-0.020507812,-1.0356445,-0.006385351,-0.006385351,0.0,204.6,14.400001,-15.3,43.229412,173.03995,0.0,1,0,0,3.240177,3.0702677,false,0.0
25631,-0.008300781,-0.020507812,-1.0356445,-0.006385351,-0.006385351,0.0,204.6,14.400001,-15.3,43.229412,173.03995,0.0,1,0,0,3.240177,3.0702677,false,0.0
25631,-0.008300781,-0.020507812,-1.0356445,-0.006385351,-0.006385351,0.0,204.6,14.400001,-15.3,43.229412,173.03995,0.0,1,0,0,3.240177,3.0702677,false,0.0
25631,-0.008300781,-0.020507812,-1.0356445,-0.006385351,-0.006385351,0.0,204.6,14.400001,-15.3,43.229412,173.03995,0.0,1,0,0,3.240177,3.0702677,false,0.0
25631,-0.008300781,-0.020507812,-1.0356445,-0.006385351,-0.006385351,0.0,204.6,14.400001,-15.3,43.229412,173.03995,0.0,1,0,0,3.240177,3.0702677,false,0.0
25631,-0.008300781,-0.020507812,-1.0356445,-0.006385351,-0.006385351,0.0,204.6,14.400001,-15.3,43.229412,173.03995,0.0,1,0,0,3.240177,3.0702677,false,0.0
25631,-0.008300781,-0.020507812,-1.0356445,-0.006385351,-0.006385351,0.0,204.6,14.400001,-15.3,43.229412,173.03995,0.0,1,0,0,3.240177,3.0702677,false,0.0
25631,-0.008300781,-0.020507812,-1.0356445,-0.006385351,-0.006385351,0.0,204.6,14.400001,-15.3,43.229412,173.03995,0.0,1,0,0,3.240177,3.0702677,false,0.0
25631,-0.008300781,-0.020507812,-1.0356445,-0.006385351,-0.006385351,0.0,204.6,14.400001,-15.3,43.229412,173.03995,0.0,1,0,0,3.240177,3.0702677,false,0.0
25631,-0.008300781,-0.020507812,-1.0356445,-0.006385351,-0.006385351,0.0,204.6,14.400001,-15.3,43.229412,173.03995,0.0,1,0,0,3.240177,3.0702677,false,0.0
25631,-0.008300781,-0.020507812,-1.0356445,-0.006385351,-0.006385351,0.0,204.6,14.400001,-15.3,43.229412,173.03995,0.0,1,0,0,3.240177,3.0702677,false,0.0
25631,-0.008300781,-0.020507812,-1.0356445,-0.006385351,-0.006385351,0.0,204.6,14.400001,-15.3,43.229412,173.03995,0.0,1,0,0,3.240177,3.0702677,false,0.0
25631,-0.008300781,-0.020507812,-1.0356445,-0.006385351,-0.006385351,0.0,204.6,14.400001,-15.3,43.229412,173.03995,0.0,1,0,0,3.240177,3.0702677,false,0.0
25631,-0.008300781,-0.020507812,-1.0356445,-0.006385351,-0.006385351,0.0,204.6,14.400001,-15.3,43.229412,173.03995,0.0,1,0,0,3.240177,3.0702677,false,0.0
25631,-0.008300781,-0.020507812,-1.0356445,-0.006385351,-0.006385351,0.0,204.6,14.400001,-15.3,43.229412,173.03995,0.0,1,0,0,3.240177,3.0702677,false,0.0
25631,-0.008300781,-0.020507812,-1.0356445,-0.006385351,-0.006385351,0.0,204.6,14.400001,-15.3,43.229412,173.03995,0.0,1,0,0,3.240177,3.0702677,false,0.0
25631,-0.008300781,-0.020507812,-1.0356445,-0.006385351,-0.006385351,0.0,204.6,14.400001,-15.3,43.229412,173.03995,0.0,1,0,0,3.240177,3.0702677,false,0.0
25631,-0.008300781,-0.020507812,-1.0356445,-0.006385351,-0.006385351,0.0,204.6,14.400001,-15.3,43.229412,173.03995,0.0,1,0,0,3.240177,3.0702677,false,0.0
25631,-0.008300781,-0.020507812,-1.0356445,-0.006385351,-0.006385351,0.0,204.6,14.400001,-15.3,43.229412,173.03995,0.0,1,0,0,3.240177,3.0702677,false,0.0
25631,-0.008300781,-0.020507812,-1.0356445,-0.006385351,-0.006385351,0.0,204.6,14.400001,-15.3,43.229412,173.03995,0.0,1,0,0,3.240177,3.0702677,false,0.0
25631,-0.008300781,-0.020507812,-1.0356445,-0.006385351,-0.006385351,0.0,204.6,14.400001,-15.3,43.229412,173.03995,0.0,1,0,0,3.240177,3.0702677,false,0.0
25631,-0.008300781,-0.020507812,-1.0356445,-0.006385351,-0.006385351,0.0,204.6,14.400001,-15.3,43.229412,173.03995,0.0,1,0,0,3.240177,3.0702677,false,0.0
25631,-0.008300781,-0.020507812,-1.0356445,-0.006385351,-0.006385351,0.0,204.6,14.400001,-15.3,43.229412,173.03995,0.0,1,0,0,3.240177,3.0702677,false,0.0
25631,-0.008300781,-0.020507812,-1.0356445,-0.006385351,-0.006385351,0.0,204.6,14.400001,-15.3,43.229412,173.03995,0.0,1,0,0,3.240177,3.0702677,false,0.0
25631,-0.008300781,-0.020507812,-1.0356445,-0.006385351,-0.006385351,0.0,204.6,14.400001,-15.3,43.229412,173.03995,0.0,1,0,0,3.240177,3.0702677,false,0.0
25631,-0.008300781,-0.020507812,-1.0356445,-0.006385351,-0.006385351,0.0,204.6,14.400001,-15.3,43.229412,173.03995,0.0,1,0,0,3.240177,3.0702677,false,0.0
25631,-0.008300781,-0.020507812,-1.0356445,-0.006385351,-0.006385351,0.0,204.6,14.400001,-15.3,43.229412,173.03995,0.0,1,0,0,3.240177,3.0702677,false,0.0
25632,-0.008300781,-0.020507812,-1.0356445,-0.006385351,-0.006385351,0.0,204.6,14.400001,-15.3,43.229412,173.03995,0.0,1,0,0,3.240177,3.0702677,false,0.0
25632,-0.008300781,-0.020507812,-1.0356445,-0.006385351,-0.006385351,0.0,204.6,14.400001,-15.3,43.229412,173.03995,0.0,1,0,0,3.240177,3.0702677,false,0.0
25632,-0.008300781,-0.020507812,-1.0356445,-0.006385351,-0.006385351,0.0,204.6,14.400001,-15.3,43.229412,173.03995,0.0,1,0,0,3.240177,3.0702677,false,0.0
25632,-0.008300781,-0.020507812,-1.0356445,-0.006385351,-0.006385351,0.0,204.6,14.400001,-15.3,43.229412,173.03995,0.0,1,0,0,3.240177,3.0702677,false,0.0
25632,-0.008300781,-0.020507812,-1.0356445,-0.006385351,-0.006385351,0.0,204.6,14.400001,-15.3,43.229412,173.03995,0.0,1,0,0,3.240177,3.0702677,false,0.0
25632,-0.008300781,-0.020507812,-1.0356445,-0.006385351,-0.006385351,0.0,204.6,14.400001,-15.3,43.229412,173.03995,0.0,1,0,0,3.240177,3.0702677,false,0.0
25632,-0.008300781,-0.020507812,-1.0356445,-0.006385351,-0.006385351,0.0,204.6,14.400001,-15.3,43.229412,173.03995,0.0,1,0,0,3.240177,3.0702677,false,0.0
25632,-0.008300781,-0.020507812,-1.0356445,-0.006385351,-0.006385351,0.0,204.6,14.400001,-15.3,43.229412,173.03995,0.0,1,0,0,3.240177,3.0702677,false,0.0
25632,-0.008300781,-0.020507812,-1.0356445,-0.006385351,-0.006385351,0.0,204.6,14.400001,-15.3,43.229412,173.03995,0.0,1,0,0,3.240177,3.0702677,false,0.0
25632,-0.008300781,-0.020507812,-1.0356445,-0.006385351,-0.006385351,0.0,204.6,14.400001,-15.3,43.229412,173.03995,0.0,1,0,0,3.240177,3.0702677,false,0.0
25632,-0.008300781,-0.020507812,-1.0356445,-0.006385351,-0.006385351,0.0,204.6,14.400001,-15.3,43.229412,173.03995,0.0,1,0,0,3.240177,3.0702677,false,0.0
25632,-0.008300781,-0.020507812,-1.0356445,-0.006385351,-0.006385351,0.0,204.6,14.400001,-15.3,43.229412,173.03995,0.0,1,0,0,3.240177,3.0702677,false,0.0
25632,-0.0087890625,-0.0234375,-1.0351562,-0.004256901,-0.006385351,0.0010642252,201.3,12.6,-14.400001,43.264706,173.03995,0.0,1,0,0,3.2694743,3.0820172,false,0.0
25677,-0.0087890625,-0.0234375,-1.0351562,-0.004256901,-0.006385351,0.0010642252,201.3,12.6,-14.400001,43.264706,173.03995,0.0,1,0,0,3.2694743,3.0820172,false,0.0
25677,-0.0087890625,-0.0234375,-1.0351562,-0.004256901,-0.006385351,0.0010642252,201.3,12.6,-14.400001,43.264706,173.03995,0.0,1,0,0,3.2694743,3.0820172,false,0.0
25677,-0.0087890625,-0.0234375,-1.0351562,-0.004256901,-0.006385351,0.0010642252,201.3,12.6,-14.400001,43.264706,173.03995,0.0,1,0,0,3.2694743,3.0820172,false,0.0
25677,-0.0087890625,-0.0234375,-1.0351562,-0.004256901,-0.006385351,0.0010642252,201.3,12.6,-14.400001,43.264706,173.03995,0.0,1,0,0,3.2694743,3.0820172,false,0.0
25677,-0.0087890625,-0.0234375,-1.0351562,-0.004256901,-0.006385351,0.0010642252,201.3,12.6,-14.400001,43.264706,173.03995,0.0,1,0,0,3.2694743,3.0820172,false,0.0
25677,-0.0087890625,-0.0234375,-1.0351562,-0.004256901,-0.006385351,0.0010642252,201.3,12.6,-14.400001,43.264706,173.03995,0.0,1,0,0,3.2694743,3.0820172,false,0.0
25677,-0.0087890625,-0.0234375,-1.0351562,-0.004256901,-0.006385351,0.0010642252,201.3,12.6,-14.400001,43.264706,173.03995,0.0,1,0,0,3.2694743,3.0820172,false,0.0
25677,-0.0087890625,-0.0234375,-1.0351562,-0.004256901,-0.006385351,0.0010642252,201.3,12.6,-14.400001,43.264706,173.03995,0.0,1,0,0,3.2694743,3.0820172,false,0.0
25677,-0.0087890625,-0.0234375,-1.0351562,-0.004256901,-0.006385351,0.0010642252,201.3,12.6,-14.400001,43.264706,173.03995,0.0,1,0,0,3.2694743,3.0820172,false,0.0
25677,-0.0087890625,-0.0234375,-1.0351562,-0.004256901,-0.006385351,0.0010642252,201.3,12.6,-14.400001,43.264706,173.03995,0.0,1,0,0,3.2694743,3.0820172,false,0.0
25677,-0.0087890625,-0.0234375,-1.0351562,-0.004256901,-0.006385351,0.0010642252,201.3,12.6,-14.400001,43.264706,173.03995,0.0,1,0,0,3.2694743,3.0820172,false,0.0
25677,-0.0087890625,-0.0234375,-1.0351562,-0.004256901,-0.006385351,0.0010642252,201.3,12.6,-14.400001,43.264706,173.03995,0.0,1,0,0,3.2694743,3.0820172,false,0.0
25677,-0.0087890625,-0.0234375,-1.0351562,-0.004256901,-0.006385351,0.0010642252,201.3,12.6,-14.400001,43.264706,173.03995,0.0,1,0,0,3.2694743,3.0820172,false,0.0
25677,-0.0087890625,-0.0234375,-1.0351562,-0.004256901,-0.006385351,0.0010642252,201.3,12.6,-14.400001,43.264706,173.03995,0.0,1,0,0,3.2694743,3.0820172,false,0.0
25677,-0.0087890625,-0.0234375,-1.0351562,-0.004256901,-0.006385351,0.0010642252,201.3,12.6,-14.400001,43.264706,173.03995,0.0,1,0,0,3.2694743,3.0820172,false,0.0
25677,-0.0087890625,-0.0234375,-1.0351562,-0.004256901,-0.006385351,0.0010642252,201.3,12.6,-14.400001,43.264706,173.03995,0.0,1,0,0,3.2694743,3.0820172,false,0.0
25677,-0.0087890625,-0.0234375,-1.0351562,-0.004256901,-0.006385351,0.0010642252,201.3,12.6,-14.400001,43.264706,173.03995,0.0,1,0,0,3.2694743,3.0820172,false,0.0
25677,-0.0087890625,-0.0234375,-1.0351562,-0.004256901,-0.006385351,0.0010642252,201.3,12.6,-14.400001,43.264706,173.03995,0.0,1,0,0,3.2694743,3.0820172,false,0.0
25677,-0.0087890625,-0.0234375,-1.0351562,-0.004256901,-0.006385351,0.0010642252,201.3,12.6,-14.400001,43.264706,173.03995,0.0,1,0,0,3.2694743,3.0820172,false,0.0
25677,-0.0087890625,-0.0234375,-1.0351562,-0.004256901,-0.006385351,0.0010642252,201.3,12.6,-14.400001,43.264706,173.03995,0.0,1,0,0,3.2694743,3.0820172,false,0.0
25677,-0.0087890625,-0.0234375,-1.0351562,-0.004256901,-0.006385351,0.0010642252,201.3,12.6,-14.400001,43.264706,173.03995,0.0,1,0,0,3.2694743,3.0820172,false,0.0
25680,-0.0087890625,-0.0234375,-1.0351562,-0.004256901,-0.006385351,0.0010642252,201.3,12.6,-14.400001,43.264706,173.03995,0.0,1,0,0,3.2694743,3.0820172,false,0.0
25680,-0.0087890625,-0.0234375,-1.0351562,-0.004256901,-0.006385351,0.0010642252,201.3,12.6,-14.400001,43.264706,173.03995,0.0,1,0,0,3.2694743,3.0820172,false,0.0
25680,-0.0087890625,-0.0234375,-1.0351562,-0.004256901,-0.006385351,0.0010642252,201.3,12.6,-14.400001,43.264706,173.03995,0.0,1,0,0,3.2694743,3.0820172,false,0.0
25680,-0.0087890625,-0.0234375,-1.0351562,-0.004256901,-0.006385351,0.0010642252,201.3,12.6,-14.400001,43.264706,173.03995,0.0,1,0,0,3.2694743,3.0820172,false,0.0
25680,-0.0087890625,-0.0234375,-1.0351562,-0.004256901,-0.006385351,0.0010642252,201.3,12.6,-14.400001,43.264706,173.03995,0.0,1,0,0,3.2694743,3.0820172,false,0.0
25680,-0.0087890625,-0.0234375,-1.0351562,-0.004256901,-0.006385351,0.0010642252,201.3,12.6,-14.400001,43.264706,173.03995,0.0,1,0,0,3.2694743,3.0820172,false,0.0
25680,-0.0087890625,-0.0234375,-1.0351562,-0.004256901,-0.006385351,0.0010642252,201.3,12.6,-14.400001,43.264706,173.03995,0.0,1,0,0,3.2694743,3.0820172,false,0.0
25680,-0.0087890625,-0.0234375,-1.0351562,-0.004256901,-0.006385351,0.0010642252,201.3,12.6,-14.400001,43.264706,173.03995,0.0,1,0,0,3.2694743,3.0820172,false,0.0
25680,-0.0087890625,-0.0234375,-1.0351562,-0.004256901,-0.006385351,0.0010642252,201.3,12.6,-14.400001,43.264706,173.03995,0.0,1,0,0,3.2694743,3.0820172,false,0.0
25680,-0.0087890625,-0.0234375,-1.0351562,-0.004256901,-0.006385351,0.0010642252,201.3,12.6,-14.400001,43.264706,173.03995,0.0,1,0,0,3.2694743,3.0820172,false,0.0
25680,-0.0087890625,-0.0234375,-1.0351562,-0.004256901,-0.006385351,0.0010642252,201.3,12.6,-14.400001,43.264706,173.03995,0.0,1,0,0,3.2694743,3.0820172,false,0.0
25680,-0.0087890625,-0.0234375,-1.0351562,-0.004256901,-0.006385351,0.0010642252,201.3,12.6,-14.400001,43.264706,173.03995,0.0,1,0,0,3.2694743,3.0820172,false,0.0
25680,-0.0087890625,-0.0234375,-1.0351562,-0.004256901,-0.006385351,0.0010642252,201.3,12.6,-14.400001,43.264706,173.03995,0.0,1,0,0,3.2694743,3.0820172,false,0.0
25680,-0.0087890625,-0.0234375,-1.0351562,-0.004256901,-0.006385351,0.0010642252,201.3,12.6,-14.400001,43.264706,173.03995,0.0,1,0,0,3.2694743,3.0820172,false,0.0
25680,-0.0087890625,-0.0234375,-1.0351562,-0.004256901,-0.006385351,0.0010642252,201.3,12.6,-14.400001,43.264706,173.03995,0.0,1,0,0,3.2694743,3.0820172,false,0.0
25680,-0.0087890625,-0.0234375,-1.0351562,-0.004256901,-0.006385351,0.0010642252,201.3,12.6,-14.400001,43.264706,173.03995,0.0,1,0,0,3.2694743,3.0820172,false,0.0
25680,-0.0087890625,-0.0234375,-1.0351562,-0.004256901,-0.006385351,0.0010642252,201.3,12.6,-14.400001,43.264706,173.03995,0.0,1,0,0,3.2694743,3.0820172,false,0.0
25680,-0.0087890625,-0.0234375,-1.0351562,-0.004256901,-0.006385351,0.0010642252,201.3,12.6,-14.400001,43.264706,173.03995,0.0,1,0,0,3.2694743,3.0820172,false,0.0
25680,-0.0087890625,-0.0234375,-1.0351562,-0.004256901,-0.006385351,0.0010642252,201.3,12.6,-14.400001,43.264706,173.03995,0.0,1,0,0,3.2694743,3.0820172,false,0.0
25680,-0.0087890625,-0.0234375,-1.0351562,-0.004256901,-0.006385351,0.0010642252,201.3,12.6,-14.400001,43.264706,173.03995,0.0,1,0,0,3.2694743,3.0820172,false,0.0
25680,-0.0087890625,-0.0234375,-1.0351562,-0.004256901,-0.006385351,0.0010642252,201.3,12.6,-14.400001,43.264706,173.03995,0.0,1,0,0,3.2694743,3.0820172,false,0.0
25680,-0.0087890625,-0.021972656,-1.034668,-0.005321126,-0.007449576,0.0010642252,202.8,16.2,-14.400001,43.27941,173.03995,0.0,1,0,0,3.2635996,3.0702677,false,0.0
25727,-0.0087890625,-0.021972656,-1.034668,-0.005321126,-0.007449576,0.0010642252,202.8,16.2,-14.400001,43.27941,173.03995,0.0,1,0,0,3.2635996,3.0702677,false,0.0
25727,-0.0087890625,-0.021972656,-1.034668,-0.005321126,-0.007449576,0.0010642252,202.8,16.2,-14.400001,43.27941,173.03995,0.0,1,0,0,3.2635996,3.0702677,false,0.0
25727,-0.0087890625,-0.021972656,-1.034668,-0.005321126,-0.007449576,0.0010642252,202.8,16.2,-14.400001,43.27941,173.03995,0.0,1,0,0,3.2635996,3.0702677,false,0.0
25727,-0.0087890625,-0.021972656,-1.034668,-0.005321126,-0.007449576,0.0010642252,202.8,16.2,-14.400001,43.27941,173.03995,0.0,1,0,0,3.2635996,3.0702677,false,0.0
25727,-0.0087890625,-0.021972656,-1.034668,-0.005321126,-0.007449576,0.0010642252,202.8,16.2,-14.400001,43.27941,173.03995,0.0,1,0,0,3.2635996,3.0702677,false,0.0
25727,-0.0087890625,-0.021972656,-1.034668,-0.005321126,-0.007449576,0.0010642252,202.8,16.2,-14.400001,43.27941,173.03995,0.0,1,0,0,3.2635996,3.0702677,false,0.0
25727,-0.0087890625,-0.021972656,-1.034668,-0.005321126,-0.007449576,0.0010642252,202.8,16.2,-14.400001,43.27941,173.03995,0.0,1,0,0,3.2635996,3.0702677,false,0.0
25727,-0.0087890625,-0.021972656,-1.034668,-0.005321126,-0.007449576,0.0010642252,202.8,16.2,-14.400001,43.27941,173.03995,0.0,1,0,0,3.2635996,3.0702677,false,0.0
25727,-0.0087890625,-0.021972656,-1.034668,-0.005321126,-0.007449576,0.0010642252,202.8,16.2,-14.400001,43.27941,173.03995,0.0,1,0,0,3.2635996,3.0702677,false,0.0
25727,-0.0087890625,-0.021972656,-1.034668,-0.005321126,-0.007449576,0.0010642252,202.8,16.2,-14.400001,43.27941,173.03995,0.0,1,0,0,3.2635996,3.0702677,false,0.0
25727,-0.0087890625,-0.021972656,-1.034668,-0.005321126,-0.007449576,0.0010642252,202.8,16.2,-14.400001,43.27941,173.03995,0.0,1,0,0,3.2635996,3.0702677,false,0.0
25727,-0.0087890625,-0.021972656,-1.034668,-0.005321126,-0.007449576,0.0010642252,202.8,16.2,-14.400001,43.27941,173.03995,0.0,1,0,0,3.2635996,3.0702677,false,0.0
25727,-0.0087890625,-0.021972656,-1.034668,-0.005321126,-0.007449576,0.0010642252,202.8,16.2,-14.400001,43.27941,173.03995,0.0,1,0,0,3.2635996,3.0702677,false,0.0
25727,-0.0087890625,-0.021972656,-1.034668,-0.005321126,-0.007449576,0.0010642252,202.8,16.2,-14.400001,43.27941,173.03995,0.0,1,0,0,3.2635996,3.0702677,false,0.0
25727,-0.0087890625,-0.021972656,-1.034668,-0.005321126,-0.007449576,0.0010642252,202.8,16.2,-14.400001,43.27941,173.03995,0.0,1,0,0,3.2635996,3.0702677,false,0.0
25729,-0.0087890625,-0.021972656,-1.034668,-0.005321126,-0.007449576,0.0010642252,202.8,16.2,-14.400001,43.27941,173.03995,0.0,1,0,0,3.2635996,3.0702677,false,0.0
25729,-0.0087890625,-0.021972656,-1.034668,-0.005321126,-0.007449576,0.0010642252,202.8,16.2,-14.400001,43.27941,173.03995,0.0,1,0,0,3.2635996,3.0702677,false,0.0
25729,-0.0087890625,-0.021972656,-1.034668,-0.005321126,-0.007449576,0.0010642252,202.8,16.2,-14.400001,43.27941,173.03995,0.0,1,0,0,3.2635996,3.0702677,false,0.0
25729,-0.0087890625,-0.021972656,-1.034668,-0.005321126,-0.007449576,0.0010642252,202.8,16.2,-14.400001,43.27941,173.03995,0.0,1,0,0,3.2635996,3.0702677,false,0.0
25729,-0.0087890625,-0.021972656,-1.034668,-0.005321126,-0.007449576,0.0010642252,202.8,16.2,-14.400001,43.27941,173.03995,0.0,1,0,0,3.2635996,3.0702677,false,0.0
25729,-0.0087890625,-0.021972656,-1.034668,-0.005321126,-0.007449576,0.0010642252,202.8,16.2,-14.400001,43.27941,173.03995,0.0,1,0,0,3.2635996,3.0702677,false,0.0
25729,-0.0087890625,-0.021972656,-1.034668,-0.005321126,-0.007449576,0.0010642252,202.8,16.2,-14.400001,43.27941,173.03995,0.0,1,0,0,3.2635996,3.0702677,false,0.0
25729,-0.0087890625,-0.021972656,-1.034668,-0.005321126,-0.007449576,0.0010642252,202.8,16.2,-14.400001,43.27941,173.03995,0.0,1,0,0,3.2635996,3.0702677,false,0.0
25735,-0.0087890625,-0.021972656,-1.034668,-0.005321126,-0.007449576,0.0010642252,202.8,16.2,-14.400001,43.27941,173.03995,0.0,1,0,0,3.2635996,3.0702677,false,0.0
25736,-0.0087890625,-0.021972656,-1.034668,-0.005321126,-0.007449576,0.0010642252,202.8,16.2,-14.400001,43.27941,173.03995,0.0,1,0,0,3.2635996,3.0702677,false,0.0
25736,-0.0087890625,-0.021972656,-1.034668,-0.005321126,-0.007449576,0.0010642252,202.8,16.2,-14.400001,43.27941,173.03995,0.0,1,0,0,3.2635996,3.0702677,false,0.0
25736,-0.0087890625,-0.021972656,-1.034668,-0.005321126,-0.007449576,0.0010642252,202.8,16.2,-14.400001,43.27941,173.03995,0.0,1,0,0,3.2635996,3.0702677,false,0.0
25736,-0.0087890625,-0.021972656,-1.034668,-0.005321126,-0.007449576,0.0010642252,202.8,16.2,-14.400001,43.27941,173.03995,0.0,1,0,0,3.2635996,3.0702677,false,0.0
25736,-0.0087890625,-0.021972656,-1.034668,-0.005321126,-0.007449576,0.0010642252,202.8,16.2,-14.400001,43.27941,173.03995,0.0,1,0,0,3.2635996,3.0702677,false,0.0
25736,-0.0087890625,-0.021972656,-1.034668,-0.005321126,-0.007449576,0.0010642252,202.8,16.2,-14.400001,43.27941,173.03995,0.0,1,0,0,3.2635996,3.0702677,false,0.0
25736,-0.0087890625,-0.021972656,-1.034668,-0.005321126,-0.007449576,0.0010642252,202.8,16.2,-14.400001,43.27941,173.03995,0.0,1,0,0,3.2635996,3.0702677,false,0.0
25736,-0.0087890625,-0.021972656,-1.034668,-0.005321126,-0.007449576,0.0010642252,202.8,16.2,-14.400001,43.27941,173.03995,0.0,1,0,0,3.2635996,3.0702677,false,0.0
25736,-0.0087890625,-0.021972656,-1.034668,-0.005321126,-0.007449576,0.0010642252,202.8,16.2,-14.400001,43.27941,173.03995,0.0,1,0,0,3.2635996,3.0702677,false,0.0
25736,-0.0087890625,-0.021972656,-1.034668,-0.005321126,-0.007449576,0.0010642252,202.8,16.2,-14.400001,43.27941,173.03995,0.0,1,0,0,3.2635996,3.0702677,false,0.0
25736,-0.0087890625,-0.021972656,-1.034668,-0.005321126,-0.007449576,0.0010642252,202.8,16.2,-14.400001,43.27941,173.03995,0.0,1,0,0,3.2635996,3.0702677,false,0.0
25736,-0.0087890625,-0.021972656,-1.034668,-0.005321126,-0.007449576,0.0010642252,202.8,16.2,-14.400001,43.27941,173.03995,0.0,1,0,0,3.2635996,3.0702677,false,0.0
25736,-0.0087890625,-0.021972656,-1.034668,-0.005321126,-0.007449576,0.0010642252,202.8,16.2,-14.400001,43.27941,173.03995,0.0,1,0,0,3.2635996,3.0702677,false,0.0
25736,-0.0087890625,-0.021972656,-1.034668,-0.005321126,-0.007449576,0.0010642252,202.8,16.2,-14.400001,43.27941,173.03995,0.0,1,0,0,3.2635996,3.0702677,false,0.0
25736,-0.0087890625,-0.021972656,-1.034668,-0.005321126,-0.007449576,0.0010642252,202.8,16.2,-14.400001,43.27941,173.03995,0.0,1,0,0,3.2635996,3.0702677,false,0.0
25737,-0.0087890625,-0.021972656,-1.034668,-0.005321126,-0.007449576,0.0010642252,202.8,16.2,-14.400001,43.27941,173.03995,0.0,1,0,0,3.2635996,3.0702677,false,0.0
25737,-0.0087890625,-0.021972656,-1.034668,-0.005321126,-0.007449576,0.0010642252,202.8,16.2,-14.400001,43.27941,173.03995,0.0,1,0,0,3.2635996,3.0702677,false,0.0
25737,-0.0087890625,-0.021972656,-1.034668,-0.005321126,-0.007449576,0.0010642252,202.8,16.2,-14.400001,43.27941,173.03995,0.0,1,0,0,3.2635996,3.0702677,false,0.0
25737,-0.0107421875,-0.020019531,-1.0366211,-0.005321126,-0.004256901,0.0010642252,206.1,12.900001,-16.2,43.270588,173.03995,0.0,1,0,0,3.240177,3.0702677,false,0.0
25781,-0.0107421875,-0.020019531,-1.0366211,-0.005321126,-0.004256901,0.0010642252,206.1,12.900001,-16.2,43.270588,173.03995,0.0,1,0,0,3.240177,3.0702677,false,0.0
25781,-0.0107421875,-0.020019531,-1.0366211,-0.005321126,-0.004256901,0.0010642252,206.1,12.900001,-16.2,43.270588,173.03995,0.0,1,0,0,3.240177,3.0702677,false,0.0
25781,-0.0107421875,-0.020019531,-1.0366211,-0.005321126,-0.004256901,0.0010642252,206.1,12.900001,-16.2,43.270588,173.03995,0.0,1,0,0,3.240177,3.0702677,false,0.0
25781,-0.0107421875,-0.020019531,-1.0366211,-0.005321126,-0.004256901,0.0010642252,206.1,12.900001,-16.2,43.270588,173.03995,0.0,1,0,0,3.240177,3.0702677,false,0.0
25781,-0.0107421875,-0.020019531,-1.0366211,-0.005321126,-0.004256901,0.0010642252,206.1,12.900001,-16.2,43.270588,173.03995,0.0,1,0,0,3.240177,3.0702677,false,0.0
25781,-0.0107421875,-0.020019531,-1.0366211,-0.005321126,-0.004256901,0.0010642252,206.1,12.900001,-16.2,43.270588,173.03995,0.0,1,0,0,3.240177,3.0702677,false,0.0
25781,-0.0107421875,-0.020019531,-1.0366211,-0.005321126,-0.004256901,0.0010642252,206.1,12.900001,-16.2,43.270588,173.03995,0.0,1,0,0,3.240177,3.0702677,false,0.0
25782,-0.0107421875,-0.020019531,-1.0366211,-0.005321126,-0.004256901,0.0010642252,206.1,12.900001,-16.2,43.270588,173.03995,0.0,1,0,0,3.240177,3.0702677,false,0.0
25782,-0.0107421875,-0.020019531,-1.0366211,-0.005321126,-0.004256901,0.0010642252,206.1,12.900001,-16.2,43.270588,173.03995,0.0,1,0,0,3.240177,3.0702677,false,0.0
25782,-0.0107421875,-0.020019531,-1.0366211,-0.005321126,-0.004256901,0.0010642252,206.1,12.900001,-16.2,43.270588,173.03995,0.0,1,0,0,3.240177,3.0702677,false,0.0
25783,-0.0107421875,-0.020019531,-1.0366211,-0.005321126,-0.004256901,0.0010642252,206.1,12.900001,-16.2,43.270588,173.03995,0.0,1,0,0,3.240177,3.0702677,false,0.0
25783,-0.0107421875,-0.020019531,-1.0366211,-0.005321126,-0.004256901,0.0010642252,206.1,12.900001,-16.2,43.270588,173.03995,0.0,1,0,0,3.240177,3.0702677,false,0.0
25783,-0.0107421875,-0.020019531,-1.0366211,-0.005321126,-0.004256901,0.0010642252,206.1,12.900001,-16.2,43.270588,173.03995,0.0,1,0,0,3.240177,3.0702677,false,0.0
25783,-0.0107421875,-0.020019531,-1.0366211,-0.005321126,-0.004256901,0.0010642252,206.1,12.900001,-16.2,43.270588,173.03995,0.0,1,0,0,3.240177,3.0702677,false,0.0
25783,-0.0107421875,-0.020019531,-1.0366211,-0.005321126,-0.004256901,0.0010642252,206.1,12.900001,-16.2,43.270588,173.03995,0.0,1,0,0,3.240177,3.0702677,false,0.0
25783,-0.0107421875,-0.020019531,-1.0366211,-0.005321126,-0.004256901,0.0010642252,206.1,12.900001,-16.2,43.270588,173.03995,0.0,1,0,0,3.240177,3.0702677,false,0.0
25783,-0.0107421875,-0.020019531,-1.0366211,-0.005321126,-0.004256901,0.0010642252,206.1,12.900001,-16.2,43.270588,173.03995,0.0,1,0,0,3.240177,3.0702677,false,0.0
25783,-0.0107421875,-0.020019531,-1.0366211,-0.005321126,-0.004256901,0.0010642252,206.1,12.900001,-16.2,43.270588,173.03995,0.0,1,0,0,3.240177,3.0702677,false,0.0
25783,-0.0107421875,-0.020019531,-1.0366211,-0.005321126,-0.004256901,0.0010642252,206.1,12.900001,-16.2,43.270588,173.03995,0.0,1,0,0,3.240177,3.0702677,false,0.0
25783,-0.0107421875,-0.020019531,-1.0366211,-0.005321126,-0.004256901,0.0010642252,206.1,12.900001,-16.2,43.270588,173.03995,0.0,1,0,0,3.240177,3.0702677,false,0.0
25783,-0.0107421875,-0.020019531,-1.0366211,-0.005321126,-0.004256901,0.0010642252,206.1,12.900001,-16.2,43.270588,173.03995,0.0,1,0,0,3.240177,3.0702677,false,0.0
25783,-0.0107421875,-0.020019531,-1.0366211,-0.005321126,-0.004256901,0.0010642252,206.1,12.900001,-16.2,43.270588,173.03995,0.0,1,0,0,3.240177,3.0702677,false,0.0
25783,-0.0107421875,-0.020019531,-1.0366211,-0.005321126,-0.004256901,0.0010642252,206.1,12.900001,-16.2,43.270588,173.03995,0.0,1,0,0,3.240177,3.0702677,false,0.0
25783,-0.0107421875,-0.020019531,-1.0366211,-0.005321126,-0.004256901,0.0010642252,206.1,12.900001,-16.2,43.270588,173.03995,0.0,1,0,0,3.240177,3.0702677,false,0.0
25783,-0.0107421875,-0.020019531,-1.0366211,-0.005321126,-0.004256901,0.0010642252,206.1,12.900001,-16.2,43.270588,173.03995,0.0,1,0,0,3.240177,3.0702677,false,0.0
25783,-0.0107421875,-0.020019531,-1.0366211,-0.005321126,-0.004256901,0.0010642252,206.1,12.900001,-16.2,43.270588,173.03995,0.0,1,0,0,3.240177,3.0702677,false,0.0
25783,-0.0107421875,-0.020019531,-1.0366211,-0.005321126,-0.004256901,0.0010642252,206.1,12.900001,-16.2,43.270588,173.03995,0.0,1,0,0,3.240177,3.0702677,false,0.0
25783,-0.0107421875,-0.020019531,-1.0366211,-0.005321126,-0.004256901,0.0010642252,206.1,12.900001,-16.2,43.270588,173.03995,0.0,1,0,0,3.240177,3.0702677,false,0.0
25784,-0.0107421875,-0.020019531,-1.0366211,-0.005321126,-0.004256901,0.0010642252,206.1,12.900001,-16.2,43.270588,173.03995,0.0,1,0,0,3.240177,3.0702677,false,0.0
25784,-0.0107421875,-0.020019531,-1.0366211,-0.005321126,-0.004256901,0.0010642252,206.1,12.900001,-16.2,43.270588,173.03995,0.0,1,0,0,3.240177,3.0702677,false,0.0
25784,-0.0107421875,-0.020019531,-1.0366211,-0.005321126,-0.004256901,0.0010642252,206.1,12.900001,-16.2,43.270588,173.03995,0.0,1,0,0,3.240177,3.0702677,false,0.0
25784,-0.0107421875,-0.020019531,-1.0366211,-0.005321126,-0.004256901,0.0010642252,206.1,12.900001,-16.2,43.270588,173.03995,0.0,1,0,0,3.240177,3.0702677,false,0.0
25784,-0.0107421875,-0.020019531,-1.0366211,-0.005321126,-0.004256901,0.0010642252,206.1,12.900001,-16.2,43.270588,173.03995,0.0,1,0,0,3.240177,3.0702677,false,0.0
25784,-0.0107421875,-0.020019531,-1.0366211,-0.005321126,-0.004256901,0.0010642252,206.1,12.900001,-16.2,43.270588,173.03995,0.0,1,0,0,3.240177,3.0702677,false,0.0
25784,-0.0107421875,-0.020019531,-1.0366211,-0.005321126,-0.004256901,0.0010642252,206.1,12.900001,-16.2,43.270588,173.03995,0.0,1,0,0,3.240177,3.0702677,false,0.0
25784,-0.0107421875,-0.020019531,-1.0366211,-0.005321126,-0.004256901,0.0010642252,206.1,12.900001,-16.2,43.270588,173.03995,0.0,1,0,0,3.240177,3.0702677,false,0.0
25784,-0.0107421875,-0.020019531,-1.0366211,-0.005321126,-0.004256901,0.0010642252,206.1,12.900001,-16.2,43.270588,173.03995,0.0,1,0,0,3.240177,3.0702677,false,0.0
25784,-0.0107421875,-0.020019531,-1.0366211,-0.005321126,-0.004256901,0.0010642252,206.1,12.900001,-16.2,43.270588,173.03995,0.0,1,0,0,3.240177,3.0702677,false,0.0
25784,-0.0107421875,-0.020019531,-1.0366211,-0.005321126,-0.004256901,0.0010642252,206.1,12.900001,-16.2,43.270588,173.03995,0.0,1,0,0,3.240177,3.0702677,false,0.0
25784,-0.0107421875,-0.020019531,-1.0366211,-0.005321126,-0.004256901,0.0010642252,206.1,12.900001,-16.2,43.270588,173.03995,0.0,1,0,0,3.240177,3.0702677,false,0.0
25784,-0.0107421875,-0.020019531,-1.0366211,-0.005321126,-0.004256901,0.0010642252,206.1,12.900001,-16.2,43.270588,173.03995,0.0,1,0,0,3.240177,3.0702677,false,0.0
25784,-0.0107421875,-0.020019531,-1.0366211,-0.005321126,-0.004256901,0.0010642252,206.1,12.900001,-16.2,43.270588,173.03995,0.0,1,0,0,3.240177,3.0702677,false,0.0
25784,-0.011230469,-0.020507812,-1.0327148,-0.007449576,-0.007449576,0.0,201.3,13.200001,-15.000001,43.264706,173.03995,0.0,1,0,0,3.240177,3.0702677,false,0.0
25831,-0.011230469,-0.020507812,-1.0327148,-0.007449576,-0.007449576,0.0,201.3,13.200001,-15.000001,43.264706,173.03995,0.0,1,0,0,3.240177,3.0702677,false,0.0
25833,-0.011230469,-0.020507812,-1.0327148,-0.007449576,-0.007449576,0.0,201.3,13.200001,-15.000001,43.264706,173.03995,0.0,1,0,0,3.240177,3.0702677,false,0.0
25833,-0.011230469,-0.020507812,-1.0327148,-0.007449576,-0.007449576,0.0,201.3,13.200001,-15.000001,43.264706,173.03995,0.0,1,0,0,3.240177,3.0702677,false,0.0
25833,-0.011230469,-0.020507812,-1.0327148,-0.007449576,-0.007449576,0.0,201.3,13.200001,-15.000001,43.264706,173.03995,0.0,1,0,0,3.240177,3.0702677,false,0.0
25833,-0.011230469,-0.020507812,-1.0327148,-0.007449576,-0.007449576,0.0,201.3,13.200001,-15.000001,43.264706,173.03995,0.0,1,0,0,3.240177,3.0702677,false,0.0
25833,-0.011230469,-0.020507812,-1.0327148,-0.007449576,-0.007449576,0.0,201.3,13.200001,-15.000001,43.264706,173.03995,0.0,1,0,0,3.240177,3.0702677,false,0.0
25833,-0.011230469,-0.020507812,-1.0327148,-0.007449576,-0.007449576,0.0,201.3,13.200001,-15.000001,43.264706,173.03995,0.0,1,0,0,3.240177,3.0702677,false,0.0
25833,-0.011230469,-0.020507812,-1.0327148,-0.007449576,-0.007449576,0.0,201.3,13.200001,-15.000001,43.264706,173.03995,0.0,1,0,0,3.240177,3.0702677,false,0.0
25833,-0.011230469,-0.020507812,-1.0327148,-0.007449576,-0.007449576,0.0,201.3,13.200001,-15.000001,43.264706,173.03995,0.0,1,0,0,3.240177,3.0702677,false,0.0
25833,-0.011230469,-0.020507812,-1.0327148,-0.007449576,-0.007449576,0.0,201.3,13.200001,-15.000001,43.264706,173.03995,0.0,1,0,0,3.240177,3.0702677,false,0.0
25833,-0.011230469,-0.020507812,-1.0327148,-0.007449576,-0.007449576,0.0,201.3,13.200001,-15.000001,43.264706,173.03995,0.0,1,0,0,3.240177,3.0702677,false,0.0
25833,-0.011230469,-0.020507812,-1.0327148,-0.007449576,-0.007449576,0.0,201.3,13.200001,-15.000001,43.264706,173.03995,0.0,1,0,0,3.240177,3.0702677,false,0.0
25833,-0.011230469,-0.020507812,-1.0327148,-0.007449576,-0.007449576,0.0,201.3,13.200001,-15.000001,43.264706,173.03995,0.0,1,0,0,3.240177,3.0702677,false,0.0
25833,-0.011230469,-0.020507812,-1.0327148,-0.007449576,-0.007449576,0.0,201.3,13.200001,-15.000001,43.264706,173.03995,0.0,1,0,0,3.240177,3.0702677,false,0.0
25833,-0.011230469,-0.020507812,-1.0327148,-0.007449576,-0.007449576,0.0,201.3,13.200001,-15.000001,43.264706,173.03995,0.0,1,0,0,3.240177,3.0702677,false,0.0
25833,-0.011230469,-0.020507812,-1.0327148,-0.007449576,-0.007449576,0.0,201.3,13.200001,-15.000001,43.264706,173.03995,0.0,1,0,0,3.240177,3.0702677,false,0.0
25833,-0.011230469,-0.020507812,-1.0327148,-0.007449576,-0.007449576,0.0,201.3,13.200001,-15.000001,43.264706,173.03995,0.0,1,0,0,3.240177,3.0702677,false,0.0
25834,-0.011230469,-0.020507812,-1.0327148,-0.007449576,-0.007449576,0.0,201.3,13.200001,-15.000001,43.264706,173.03995,0.0,1,0,0,3.240177,3.0702677,false,0.0
25834,-0.011230469,-0.020507812,-1.0327148,-0.007449576,-0.007449576,0.0,201.3,13.200001,-15.000001,43.264706,173.03995,0.0,1,0,0,3.240177,3.0702677,false,0.0
25834,-0.011230469,-0.020507812,-1.0327148,-0.007449576,-0.007449576,0.0,201.3,13.200001,-15.000001,43.264706,173.03995,0.0,1,0,0,3.240177,3.0702677,false,0.0
25834,-0.011230469,-0.020507812,-1.0327148,-0.007449576,-0.007449576,0.0,201.3,13.200001,-15.000001,43.264706,173.03995,0.0,1,0,0,3.240177,3.0702677,false,0.0
25834,-0.011230469,-0.020507812,-1.0327148,-0.007449576,-0.007449576,0.0,201.3,13.200001,-15.000001,43.264706,173.03995,0.0,1,0,0,3.240177,3.0702677,false,0.0
25834,-0.011230469,-0.020507812,-1.0327148,-0.007449576,-0.007449576,0.0,201.3,13.200001,-15.000001,43.264706,173.03995,0.0,1,0,0,3.240177,3.0702677,false,0.0
25834,-0.011230469,-0.020507812,-1.0327148,-0.007449576,-0.007449576,0.0,201.3,13.200001,-15.000001,43.264706,173.03995,0.0,1,0,0,3.240177,3.0702677,false,0.0
25834,-0.011230469,-0.020507812,-1.0327148,-0.007449576,-0.007449576,0.0,201.3,13.200001,-15.000001,43.264706,173.03995,0.0,1,0,0,3.240177,3.0702677,false,0.0
25834,-0.011230469,-0.020507812,-1.0327148,-0.007449576,-0.007449576,0.0,201.3,13.200001,-15.000001,43.264706,173.03995,0.0,1,0,0,3.240177,3.0702677,false,0.0
25834,-0.011230469,-0.020507812,-1.0327148,-0.007449576,-0.007449576,0.0,201.3,13.200001,-15.000001,43.264706,173.03995,0.0,1,0,0,3.240177,3.0702677,false,0.0
25834,-0.011230469,-0.020507812,-1.0327148,-0.007449576,-0.007449576,0.0,201.3,13.200001,-15.000001,43.264706,173.03995,0.0,1,0,0,3.240177,3.0702677,false,0.0
25835,-0.011230469,-0.020507812,-1.0327148,-0.007449576,-0.007449576,0.0,201.3,13.200001,-15.000001,43.264706,173.03995,0.0,1,0,0,3.240177,3.0702677,false,0.0
25835,-0.011230469,-0.020507812,-1.0327148,-0.007449576,-0.007449576,0.0,201.3,13.200001,-15.000001,43.264706,173.03995,0.0,1,0,0,3.240177,3.0702677,false,0.0
25835,-0.011230469,-0.020507812,-1.0327148,-0.007449576,-0.007449576,0.0,201.3,13.200001,-15.000001,43.264706,173.03995,0.0,1,0,0,3.240177,3.0702677,false,0.0
25835,-0.011230469,-0.020507812,-1.0327148,-0.007449576,-0.007449576,0.0,201.3,13.200001,-15.000001,43.264706,173.03995,0.0,1,0,0,3.240177,3.0702677,false,0.0
25835,-0.011230469,-0.020507812,-1.0327148,-0.007449576,-0.007449576,0.0,201.3,13.200001,-15.000001,43.264706,173.03995,0.0,1,0,0,3.240177,3.0702677,false,0.0
25835,-0.011230469,-0.020507812,-1.0327148,-0.007449576,-0.007449576,0.0,201.3,13.200001,-15.000001,43.264706,173.03995,0.0,1,0,0,3.240177,3.0702677,false,0.0
25835,-0.011230469,-0.020507812,-1.0327148,-0.007449576,-0.007449576,0.0,201.3,13.200001,-15.000001,43.264706,173.03995,0.0,1,0,0,3.240177,3.0702677,false,0.0
25835,-0.011230469,-0.020507812,-1.0327148,-0.007449576,-0.007449576,0.0,201.3,13.200001,-15.000001,43.264706,173.03995,0.0,1,0,0,3.240177,3.0702677,false,0.0
25835,-0.011230469,-0.020507812,-1.0327148,-0.007449576,-0.007449576,0.0,201.3,13.200001,-15.000001,43.264706,173.03995,0.0,1,0,0,3.240177,3.0702677,false,0.0
25835,-0.011230469,-0.020507812,-1.0327148,-0.007449576,-0.007449576,0.0,201.3,13.200001,-15.000001,43.264706,173.03995,0.0,1,0,0,3.240177,3.0702677,false,0.0
25835,-0.011230469,-0.020507812,-1.0327148,-0.007449576,-0.007449576,0.0,201.3,13.200001,-15.000001,43.264706,173.03995,0.0,1,0,0,3.240177,3.0702677,false,0.0
25835,-0.011230469,-0.020507812,-1.0327148,-0.007449576,-0.007449576,0.0,201.3,13.200001,-15.000001,43.264706,173.03995,0.0,1,0,0,3.240177,3.0702677,false,0.0
25835,-0.011230469,-0.020507812,-1.0327148,-0.007449576,-0.007449576,0.0,201.3,13.200001,-15.000001,43.264706,173.03995,0.0,1,0,0,3.240177,3.0702677,false,0.0
25835,-0.011230469,-0.020507812,-1.0327148,-0.007449576,-0.007449576,0.0,201.3,13.200001,-15.000001,43.264706,173.03995,0.0,1,0,0,3.240177,3.0702677,false,0.0
25835,-0.0063476562,-0.020507812,-1.0380859,-0.0021284504,-0.007449576,0.0031926755,203.1,14.400001,-13.200001,43.27647,173.03995,0.0,1,0,0,3.2694743,3.0585184,false,0.0
25878,-0.0063476562,-0.020507812,-1.0380859,-0.0021284504,-0.007449576,0.0031926755,203.1,14.400001,-13.200001,43.27647,173.03995,0.0,1,0,0,3.2694743,3.0585184,false,0.0
25878,-0.0063476562,-0.020507812,-1.0380859,-0.0021284504,-0.007449576,0.0031926755,203.1,14.400001,-13.200001,43.27647,173.03995,0.0,1,0,0,3.2694743,3.0585184,false,0.0
25878,-0.0063476562,-0.020507812,-1.0380859,-0.0021284504,-0.007449576,0.0031926755,203.1,14.400001,-13.200001,43.27647,173.03995,0.0,1,0,0,3.2694743,3.0585184,false,0.0
25878,-0.0063476562,-0.020507812,-1.0380859,-0.0021284504,-0.007449576,0.0031926755,203.1,14.400001,-13.200001,43.27647,173.03995,0.0,1,0,0,3.2694743,3.0585184,false,0.0
25878,-0.0063476562,-0.020507812,-1.0380859,-0.0021284504,-0.007449576,0.0031926755,203.1,14.400001,-13.200001,43.27647,173.03995,0.0,1,0,0,3.2694743,3.0585184,false,0.0
25878,-0.0063476562,-0.020507812,-1.0380859,-0.0021284504,-0.007449576,0.0031926755,203.1,14.400001,-13.200001,43.27647,173.03995,0.0,1,0,0,3.2694743,3.0585184,false,0.0
25878,-0.0063476562,-0.020507812,-1.0380859,-0.0021284504,-0.007449576,0.0031926755,203.1,14.400001,-13.200001,43.27647,173.03995,0.0,1,0,0,3.2694743,3.0585184,false,0.0
25878,-0.0063476562,-0.020507812,-1.0380859,-0.0021284504,-0.007449576,0.0031926755,203.1,14.400001,-13.200001,43.27647,173.03995,0.0,1,0,0,3.2694743,3.0585184,false,0.0
25878,-0.0063476562,-0.020507812,-1.0380859,-0.0021284504,-0.007449576,0.0031926755,203.1,14.400001,-13.200001,43.27647,173.03995,0.0,1,0,0,3.2694743,3.0585184,false,0.0
25878,-0.0063476562,-0.020507812,-1.0380859,-0.0021284504,-0.007449576,0.0031926755,203.1,14.400001,-13.200001,43.27647,173.03995,0.0,1,0,0,3.2694743,3.0585184,false,0.0
25878,-0.0063476562,-0.020507812,-1.0380859,-0.0021284504,-0.007449576,0.0031926755,203.1,14.400001,-13.200001,43.27647,173.03995,0.0,1,0,0,3.2694743,3.0585184,false,0.0
25878,-0.0063476562,-0.020507812,-1.0380859,-0.0021284504,-0.007449576,0.0031926755,203.1,14.400001,-13.200001,43.27647,173.03995,0.0,1,0,0,3.2694743,3.0585184,false,0.0
25878,-0.0063476562,-0.020507812,-1.0380859,-0.0021284504,-0.007449576,0.0031926755,203.1,14.400001,-13.200001,43.27647,173.03995,0.0,1,0,0,3.2694743,3.0585184,false,0.0
25878,-0.0063476562,-0.020507812,-1.0380859,-0.0021284504,-0.007449576,0.0031926755,203.1,14.400001,-13.200001,43.27647,173.03995,0.0,1,0,0,3.2694743,3.0585184,false,0.0
25878,-0.0063476562,-0.020507812,-1.0380859,-0.0021284504,-0.007449576,0.0031926755,203.1,14.400001,-13.200001,43.27647,173.03995,0.0,1,0,0,3.2694743,3.0585184,false,0.0
25878,-0.0063476562,-0.020507812,-1.0380859,-0.0021284504,-0.007449576,0.0031926755,203.1,14.400001,-13.200001,43.27647,173.03995,0.0,1,0,0,3.2694743,3.0585184,false,0.0
25878,-0.0063476562,-0.020507812,-1.0380859,-0.0021284504,-0.007449576,0.0031926755,203.1,14.400001,-13.200001,43.27647,173.03995,0.0,1,0,0,3.2694743,3.0585184,false,0.0
25878,-0.0063476562,-0.020507812,-1.0380859,-0.0021284504,-0.007449576,0.0031926755,203.1,14.400001,-13.200001,43.27647,173.03995,0.0,1,0,0,3.2694743,3.0585184,false,0.0
25878,-0.0063476562,-0.020507812,-1.0380859,-0.0021284504,-0.007449576,0.0031926755,203.1,14.400001,-13.200001,43.27647,173.03995,0.0,1,0,0,3.2694743,3.0585184,false,0.0
25878,-0.0063476562,-0.020507812,-1.0380859,-0.0021284504,-0.007449576,0.0031926755,203.1,14.400001,-13.200001,43.27647,173.03995,0.0,1,0,0,3.2694743,3.0585184,false,0.0
25878,-0.0063476562,-0.020507812,-1.0380859,-0.0021284504,-0.007449576,0.0031926755,203.1,14.400001,-13.200001,43.27647,173.03995,0.0,1,0,0,3.2694743,3.0585184,false,0.0
25878,-0.0063476562,-0.020507812,-1.0380859,-0.0021284504,-0.007449576,0.0031926755,203.1,14.400001,-13.200001,43.27647,173.03995,0.0,1,0,0,3.2694743,3.0585184,false,0.0
25894,-0.0063476562,-0.020507812,-1.0380859,-0.0021284504,-0.007449576,0.0031926755,203.1,14.400001,-13.200001,43.27647,173.03995,0.0,1,0,0,3.2694743,3.0585184,false,0.0
25894,-0.0063476562,-0.020507812,-1.0380859,-0.0021284504,-0.007449576,0.0031926755,203.1,14.400001,-13.200001,43.27647,173.03995,0.0,1,0,0,3.2694743,3.0585184,false,0.0
25894,-0.0063476562,-0.020507812,-1.0380859,-0.0021284504,-0.007449576,0.0031926755,203.1,14.400001,-13.200001,43.27647,173.03995,0.0,1,0,0,3.2694743,3.0585184,false,0.0
25894,-0.0063476562,-0.020507812,-1.0380859,-0.0021284504,-0.007449576,0.0031926755,203.1,14.400001,-13.200001,43.27647,173.03995,0.0,1,0,0,3.2694743,3.0585184,false,0.0
25894,-0.0063476562,-0.020507812,-1.0380859,-0.0021284504,-0.007449576,0.0031926755,203.1,14.400001,-13.200001,43.27647,173.03995,0.0,1,0,0,3.2694743,3.0585184,false,0.0
25894,-0.0063476562,-0.020507812,-1.0380859,-0.0021284504,-0.007449576,0.0031926755,203.1,14.400001,-13.200001,43.27647,173.03995,0.0,1,0,0,3.2694743,3.0585184,false,0.0
25894,-0.0063476562,-0.020507812,-1.0380859,-0.0021284504,-0.007449576,0.0031926755,203.1,14.400001,-13.200001,43.27647,173.03995,0.0,1,0,0,3.2694743,3.0585184,false,0.0
25894,-0.0063476562,-0.020507812,-1.0380859,-0.0021284504,-0.007449576,0.0031926755,203.1,14.400001,-13.200001,43.27647,173.03995,0.0,1,0,0,3.2694743,3.0585184,false,0.0
25894,-0.0063476562,-0.020507812,-1.0380859,-0.0021284504,-0.007449576,0.0031926755,203.1,14.400001,-13.200001,43.27647,173.03995,0.0,1,0,0,3.2694743,3.0585184,false,0.0
25894,-0.0063476562,-0.020507812,-1.0380859,-0.0021284504,-0.007449576,0.0031926755,203.1,14.400001,-13.200001,43.27647,173.03995,0.0,1,0,0,3.2694743,3.0585184,false,0.0
25894,-0.0063476562,-0.020507812,-1.0380859,-0.0021284504,-0.007449576,0.0031926755,203.1,14.400001,-13.200001,43.27647,173.03995,0.0,1,0,0,3.2694743,3.0585184,false,0.0
25894,-0.0063476562,-0.020507812,-1.0380859,-0.0021284504,-0.007449576,0.0031926755,203.1,14.400001,-13.200001,43.27647,173.03995,0.0,1,0,0,3.2694743,3.0585184,false,0.0
25894,-0.0063476562,-0.020507812,-1.0380859,-0.0021284504,-0.007449576,0.0031926755,203.1,14.400001,-13.200001,43.27647,173.03995,0.0,1,0,0,3.2694743,3.0585184,false,0.0
25894,-0.0063476562,-0.020507812,-1.0380859,-0.0021284504,-0.007449576,0.0031926755,203.1,14.400001,-13.200001,43.27647,173.03995,0.0,1,0,0,3.2694743,3.0585184,false,0.0
25894,-0.0063476562,-0.020507812,-1.0380859,-0.0021284504,-0.007449576,0.0031926755,203.1,14.400001,-13.200001,43.27647,173.03995,0.0,1,0,0,3.2694743,3.0585184,false,0.0
25894,-0.0063476562,-0.020507812,-1.0380859,-0.0021284504,-0.007449576,0.0031926755,203.1,14.400001,-13.200001,43.27647,173.03995,0.0,1,0,0,3.2694743,3.0585184,false,0.0
25894,-0.0063476562,-0.020507812,-1.0380859,-0.0021284504,-0.007449576,0.0031926755,203.1,14.400001,-13.200001,43.27647,173.03995,0.0,1,0,0,3.2694743,3.0585184,false,0.0
25897,-0.0063476562,-0.020507812,-1.0380859,-0.0021284504,-0.007449576,0.0031926755,203.1,14.400001,-13.200001,43.27647,173.03995,0.0,1,0,0,3.2694743,3.0585184,false,0.0
25897,-0.0063476562,-0.020507812,-1.0380859,-0.0021284504,-0.007449576,0.0031926755,203.1,14.400001,-13.200001,43.27647,173.03995,0.0,1,0,0,3.2694743,3.0585184,false,0.0
25897,-0.0063476562,-0.020507812,-1.0380859,-0.0021284504,-0.007449576,0.0031926755,203.1,14.400001,-13.200001,43.27647,173.03995,0.0,1,0,0,3.2694743,3.0585184,false,0.0
25897,-0.0073242188,-0.01953125,-1.0332031,-0.006385351,-0.006385351,-0.0010642252,202.50002,12.900001,-14.1,43.317646,173.03995,0.0,1,0,0,3.2635996,3.0702677,false,0.0
25947,-0.0073242188,-0.01953125,-1.0332031,-0.006385351,-0.006385351,-0.0010642252,202.50002,12.900001,-14.1,43.317646,173.03995,0.0,1,0,0,3.2635996,3.0702677,false,0.0
25947,-0.0073242188,-0.01953125,-1.0332031,-0.006385351,-0.006385351,-0.0010642252,202.50002,12.900001,-14.1,43.317646,173.03995,0.0,1,0,0,3.2635996,3.0702677,false,0.0
25947,-0.0073242188,-0.01953125,-1.0332031,-0.006385351,-0.006385351,-0.0010642252,202.50002,12.900001,-14.1,43.317646,173.03995,0.0,1,0,0,3.2635996,3.0702677,false,0.0
25947,-0.0073242188,-0.01953125,-1.0332031,-0.006385351,-0.006385351,-0.0010642252,202.50002,12.900001,-14.1,43.317646,173.03995,0.0,1,0,0,3.2635996,3.0702677,false,0.0
25947,-0.0073242188,-0.01953125,-1.0332031,-0.006385351,-0.006385351,-0.0010642252,202.50002,12.900001,-14.1,43.317646,173.03995,0.0,1,0,0,3.2635996,3.0702677,false,0.0
25947,-0.0073242188,-0.01953125,-1.0332031,-0.006385351,-0.006385351,-0.0010642252,202.50002,12.900001,-14.1,43.317646,173.03995,0.0,1,0,0,3.2635996,3.0702677,false,0.0
25947,-0.0073242188,-0.01953125,-1.0332031,-0.006385351,-0.006385351,-0.0010642252,202.50002,12.900001,-14.1,43.317646,173.03995,0.0,1,0,0,3.2635996,3.0702677,false,0.0
25947,-0.0073242188,-0.01953125,-1.0332031,-0.006385351,-0.006385351,-0.0010642252,202.50002,12.900001,-14.1,43.317646,173.03995,0.0,1,0,0,3.2635996,3.0702677,false,0.0
25947,-0.0073242188,-0.01953125,-1.0332031,-0.006385351,-0.006385351,-0.0010642252,202.50002,12.900001,-14.1,43.317646,173.03995,0.0,1,0,0,3.2635996,3.0702677,false,0.0
25947,-0.0073242188,-0.01953125,-1.0332031,-0.006385351,-0.006385351,-0.0010642252,202.50002,12.900001,-14.1,43.317646,173.03995,0.0,1,0,0,3.2635996,3.0702677,false,0.0
25947,-0.0073242188,-0.01953125,-1.0332031,-0.006385351,-0.006385351,-0.0010642252,202.50002,12.900001,-14.1,43.317646,173.03995,0.0,1,0,0,3.2635996,3.0702677,false,0.0
25947,-0.0073242188,-0.01953125,-1.0332031,-0.006385351,-0.006385351,-0.0010642252,202.50002,12.900001,-14.1,43.317646,173.03995,0.0,1,0,0,3.2635996,3.0702677,false,0.0
25947,-0.0073242188,-0.01953125,-1.0332031,-0.006385351,-0.006385351,-0.0010642252,202.50002,12.900001,-14.1,43.317646,173.03995,0.0,1,0,0,3.2635996,3.0702677,false,0.0
25947,-0.0073242188,-0.01953125,-1.0332031,-0.006385351,-0.006385351,-0.0010642252,202.50002,12.900001,-14.1,43.317646,173.03995,0.0,1,0,0,3.2635996,3.0702677,false,0.0
25947,-0.0073242188,-0.01953125,-1.0332031,-0.006385351,-0.006385351,-0.0010642252,202.50002,12.900001,-14.1,43.317646,173.03995,0.0,1,0,0,3.2635996,3.0702677,false,0.0
25947,-0.0073242188,-0.01953125,-1.0332031,-0.006385351,-0.006385351,-0.0010642252,202.50002,12.900001,-14.1,43.317646,173.03995,0.0,1,0,0,3.2635996,3.0702677,false,0.0
25947,-0.0073242188,-0.01953125,-1.0332031,-0.006385351,-0.006385351,-0.0010642252,202.50002,12.900001,-14.1,43.317646,173.03995,0.0,1,0,0,3.2635996,3.0702677,false,0.0
25947,-0.0073242188,-0.01953125,-1.0332031,-0.006385351,-0.006385351,-0.0010642252,202.50002,12.900001,-14.1,43.317646,173.03995,0.0,1,0,0,3.2635996,3.0702677,false,0.0
25947,-0.0073242188,-0.01953125,-1.0332031,-0.006385351,-0.006385351,-0.0010642252,202.50002,12.900001,-14.1,43.317646,173.03995,0.0,1,0,0,3.2635996,3.0702677,false,0.0
25947,-0.0073242188,-0.01953125,-1.0332031,-0.006385351,-0.006385351,-0.0010642252,202.50002,12.900001,-14.1,43.317646,173.03995,0.0,1,0,0,3.2635996,3.0702677,false,0.0
25947,-0.0073242188,-0.01953125,-1.0332031,-0.006385351,-0.006385351,-0.0010642252,202.50002,12.900001,-14.1,43.317646,173.03995,0.0,1,0,0,3.2635996,3.0702677,false,0.0
25947,-0.0073242188,-0.01953125,-1.0332031,-0.006385351,-0.006385351,-0.0010642252,202.50002,12.900001,-14.1,43.317646,173.03995,0.0,1,0,0,3.2635996,3.0702677,false,0.0
25947,-0.0073242188,-0.01953125,-1.0332031,-0.006385351,-0.006385351,-0.0010642252,202.50002,12.900001,-14.1,43.317646,173.03995,0.0,1,0,0,3.2635996,3.0702677,false,0.0
25947,-0.0073242188,-0.01953125,-1.0332031,-0.006385351,-0.006385351,-0.0010642252,202.50002,12.900001,-14.1,43.317646,173.03995,0.0,1,0,0,3.2635996,3.0702677,false,0.0
25950,-0.0073242188,-0.01953125,-1.0332031,-0.006385351,-0.006385351,-0.0010642252,202.50002,12.900001,-14.1,43.317646,173.03995,0.0,1,0,0,3.2635996,3.0702677,false,0.0
25950,-0.0073242188,-0.01953125,-1.0332031,-0.006385351,-0.006385351,-0.0010642252,202.50002,12.900001,-14.1,43.317646,173.03995,0.0,1,0,0,3.2635996,3.0702677,false,0.0
25950,-0.0073242188,-0.01953125,-1.0332031,-0.006385351,-0.006385351,-0.0010642252,202.50002,12.900001,-14.1,43.317646,173.03995,0.0,1,0,0,3.2635996,3.0702677,false,0.0
25950,-0.0073242188,-0.01953125,-1.0332031,-0.006385351,-0.006385351,-0.0010642252,202.50002,12.900001,-14.1,43.317646,173.03995,0.0,1,0,0,3.2635996,3.0702677,false,0.0
25950,-0.0073242188,-0.01953125,-1.0332031,-0.006385351,-0.006385351,-0.0010642252,202.50002,12.900001,-14.1,43.317646,173.03995,0.0,1,0,0,3.2635996,3.0702677,false,0.0
25950,-0.0073242188,-0.01953125,-1.0332031,-0.006385351,-0.006385351,-0.0010642252,202.50002,12.900001,-14.1,43.317646,173.03995,0.0,1,0,0,3.2635996,3.0702677,false,0.0
25950,-0.0073242188,-0.01953125,-1.0332031,-0.006385351,-0.006385351,-0.0010642252,202.50002,12.900001,-14.1,43.317646,173.03995,0.0,1,0,0,3.2635996,3.0702677,false,0.0
25950,-0.0073242188,-0.01953125,-1.0332031,-0.006385351,-0.006385351,-0.0010642252,202.50002,12.900001,-14.1,43.317646,173.03995,0.0,1,0,0,3.2635996,3.0702677,false,0.0
25950,-0.0073242188,-0.01953125,-1.0332031,-0.006385351,-0.006385351,-0.0010642252,202.50002,12.900001,-14.1,43.317646,173.03995,0.0,1,0,0,3.2635996,3.0702677,false,0.0
25950,-0.0073242188,-0.01953125,-1.0332031,-0.006385351,-0.006385351,-0.0010642252,202.50002,12.900001,-14.1,43.317646,173.03995,0.0,1,0,0,3.2635996,3.0702677,false,0.0
25950,-0.0073242188,-0.01953125,-1.0332031,-0.006385351,-0.006385351,-0.0010642252,202.50002,12.900001,-14.1,43.317646,173.03995,0.0,1,0,0,3.2635996,3.0702677,false,0.0
25950,-0.0073242188,-0.01953125,-1.0332031,-0.006385351,-0.006385351,-0.0010642252,202.50002,12.900001,-14.1,43.317646,173.03995,0.0,1,0,0,3.2635996,3.0702677,false,0.0
25950,-0.0073242188,-0.01953125,-1.0332031,-0.006385351,-0.006385351,-0.0010642252,202.50002,12.900001,-14.1,43.317646,173.03995,0.0,1,0,0,3.2635996,3.0702677,false,0.0
25950,-0.0073242188,-0.01953125,-1.0332031,-0.006385351,-0.006385351,-0.0010642252,202.50002,12.900001,-14.1,43.317646,173.03995,0.0,1,0,0,3.2635996,3.0702677,false,0.0
25950,-0.0073242188,-0.01953125,-1.0332031,-0.006385351,-0.006385351,-0.0010642252,202.50002,12.900001,-14.1,43.317646,173.03995,0.0,1,0,0,3.2635996,3.0702677,false,0.0
25950,-0.0073242188,-0.01953125,-1.0332031,-0.006385351,-0.006385351,-0.0010642252,202.50002,12.900001,-14.1,43.317646,173.03995,0.0,1,0,0,3.2635996,3.0702677,false,0.0
25950,-0.0073242188,-0.01953125,-1.0332031,-0.006385351,-0.006385351,-0.0010642252,202.50002,12.900001,-14.1,43.317646,173.03995,0.0,1,0,0,3.2635996,3.0702677,false,0.0
25950,-0.0073242188,-0.01953125,-1.0332031,-0.006385351,-0.006385351,-0.0010642252,202.50002,12.900001,-14.1,43.317646,173.03995,0.0,1,0,0,3.2635996,3.0702677,false,0.0
25950,-0.008300781,-0.019042969,-1.0361328,-0.005321126,-0.006385351,0.0010642252,205.50002,11.1,-15.6,43.264706,173.03995,0.0,1,0,0,3.257801,3.0820172,false,0.0
25976,-0.008300781,-0.019042969,-1.0361328,-0.005321126,-0.006385351,0.0010642252,205.50002,11.1,-15.6,43.264706,173.03995,0.0,1,0,0,3.257801,3.0820172,false,0.0
25996,-0.008300781,-0.019042969,-1.0361328,-0.005321126,-0.006385351,0.0010642252,205.50002,11.1,-15.6,43.264706,173.03995,0.0,1,0,0,3.257801,3.0820172,false,0.0
25996,-0.008300781,-0.019042969,-1.0361328,-0.005321126,-0.006385351,0.0010642252,205.50002,11.1,-15.6,43.264706,173.03995,0.0,1,0,0,3.257801,3.0820172,false,0.0
25996,-0.008300781,-0.019042969,-1.0361328,-0.005321126,-0.006385351,0.0010642252,205.50002,11.1,-15.6,43.264706,173.03995,0.0,1,0,0,3.257801,3.0820172,false,0.0
25996,-0.008300781,-0.019042969,-1.0361328,-0.005321126,-0.006385351,0.0010642252,205.50002,11.1,-15.6,43.264706,173.03995,0.0,1,0,0,3.257801,3.0820172,false,0.0
25996,-0.008300781,-0.019042969,-1.0361328,-0.005321126,-0.006385351,0.0010642252,205.50002,11.1,-15.6,43.264706,173.03995,0.0,1,0,0,3.257801,3.0820172,false,0.0
25996,-0.008300781,-0.019042969,-1.0361328,-0.005321126,-0.006385351,0.0010642252,205.50002,11.1,-15.6,43.264706,173.03995,0.0,1,0,0,3.257801,3.0820172,false,0.0
25996,-0.008300781,-0.019042969,-1.0361328,-0.005321126,-0.006385351,0.0010642252,205.50002,11.1,-15.6,43.264706,173.03995,0.0,1,0,0,3.257801,3.0820172,false,0.0
25996,-0.008300781,-0.019042969,-1.0361328,-0.005321126,-0.006385351,0.0010642252,205.50002,11.1,-15.6,43.264706,173.03995,0.0,1,0,0,3.257801,3.0820172,false,0.0
25996,-0.008300781,-0.019042969,-1.0361328,-0.005321126,-0.006385351,0.0010642252,205.50002,11.1,-15.6,43.264706,173.03995,0.0,1,0,0,3.257801,3.0820172,false,0.0
25996,-0.008300781,-0.019042969,-1.0361328,-0.005321126,-0.006385351,0.0010642252,205.50002,11.1,-15.6,43.264706,173.03995,0.0,1,0,0,3.257801,3.0820172,false,0.0
25996,-0.008300781,-0.019042969,-1.0361328,-0.005321126,-0.006385351,0.0010642252,205.50002,11.1,-15.6,43.264706,173.03995,0.0,1,0,0,3.257801,3.0820172,false,0.0
25996,-0.008300781,-0.019042969,-1.0361328,-0.005321126,-0.006385351,0.0010642252,205.50002,11.1,-15.6,43.264706,173.03995,0.0,1,0,0,3.257801,3.0820172,false,0.0
25996,-0.008300781,-0.019042969,-1.0361328,-0.005321126,-0.006385351,0.0010642252,205.50002,11.1,-15.6,43.264706,173.03995,0.0,1,0,0,3.257801,3.0820172,false,0.0
25996,-0.008300781,-0.019042969,-1.0361328,-0.005321126,-0.006385351,0.0010642252,205.50002,11.1,-15.6,43.264706,173.03995,0.0,1,0,0,3.257801,3.0820172,false,0.0
25996,-0.008300781,-0.019042969,-1.0361328,-0.005321126,-0.006385351,0.0010642252,205.50002,11.1,-15.6,43.264706,173.03995,0.0,1,0,0,3.257801,3.0820172,false,0.0
25996,-0.008300781,-0.019042969,-1.0361328,-0.005321126,-0.006385351,0.0010642252,205.50002,11.1,-15.6,43.264706,173.03995,0.0,1,0,0,3.257801,3.0820172,false,0.0
25996,-0.008300781,-0.019042969,-1.0361328,-0.005321126,-0.006385351,0.0010642252,205.50002,11.1,-15.6,43.264706,173.03995,0.0,1,0,0,3.257801,3.0820172,false,0.0
25996,-0.008300781,-0.019042969,-1.0361328,-0.005321126,-0.006385351,0.0010642252,205.50002,11.1,-15.6,43.264706,173.03995,0.0,1,0,0,3.257801,3.0820172,false,0.0
25996,-0.008300781,-0.019042969,-1.0361328,-0.005321126,-0.006385351,0.0010642252,205.50002,11.1,-15.6,43.264706,173.03995,0.0,1,0,0,3.257801,3.0820172,false,0.0
25996,-0.008300781,-0.019042969,-1.0361328,-0.005321126,-0.006385351,0.0010642252,205.50002,11.1,-15.6,43.264706,173.03995,0.0,1,0,0,3.257801,3.0820172,false,0.0
25996,-0.008300781,-0.019042969,-1.0361328,-0.005321126,-0.006385351,0.0010642252,205.50002,11.1,-15.6,43.264706,173.03995,0.0,1,0,0,3.257801,3.0820172,false,0.0
25996,-0.008300781,-0.019042969,-1.0361328,-0.005321126,-0.006385351,0.0010642252,205.50002,11.1,-15.6,43.264706,173.03995,0.0,1,0,0,3.257801,3.0820172,false,0.0
25996,-0.008300781,-0.019042969,-1.0361328,-0.005321126,-0.006385351,0.0010642252,205.50002,11.1,-15.6,43.264706,173.03995,0.0,1,0,0,3.257801,3.0820172,false,0.0
25996,-0.008300781,-0.019042969,-1.0361328,-0.005321126,-0.006385351,0.0010642252,205.50002,11.1,-15.6,43.264706,173.03995,0.0,1,0,0,3.257801,3.0820172,false,0.0
25996,-0.008300781,-0.019042969,-1.0361328,-0.005321126,-0.006385351,0.0010642252,205.50002,11.1,-15.6,43.264706,173.03995,0.0,1,0,0,3.257801,3.0820172,false,0.0
25996,-0.008300781,-0.019042969,-1.0361328,-0.005321126,-0.006385351,0.0010642252,205.50002,11.1,-15.6,43.264706,173.03995,0.0,1,0,0,3.257801,3.0820172,false,0.0
25996,-0.008300781,-0.019042969,-1.0361328,-0.005321126,-0.006385351,0.0010642252,205.50002,11.1,-15.6,43.264706,173.03995,0.0,1,0,0,3.257801,3.0820172,false,0.0
25996,-0.008300781,-0.019042969,-1.0361328,-0.005321126,-0.006385351,0.0010642252,205.50002,11.1,-15.6,43.264706,173.03995,0.0,1,0,0,3.257801,3.0820172,false,0.0
25996,-0.008300781,-0.019042969,-1.0361328,-0.005321126,-0.006385351,0.0010642252,205.50002,11.1,-15.6,43.264706,173.03995,0.0,1,0,0,3.257801,3.0820172,false,0.0
25998,-0.008300781,-0.019042969,-1.0361328,-0.005321126,-0.006385351,0.0010642252,205.50002,11.1,-15.6,43.264706,173.03995,0.0,1,0,0,3.257801,3.0820172,false,0.0
25998,-0.008300781,-0.019042969,-1.0361328,-0.005321126,-0.006385351,0.0010642252,205.50002,11.1,-15.6,43.264706,173.03995,0.0,1,0,0,3.257801,3.0820172,false,0.0
25998,-0.008300781,-0.019042969,-1.0361328,-0.005321126,-0.006385351,0.0010642252,205.50002,11.1,-15.6,43.264706,173.03995,0.0,1,0,0,3.257801,3.0820172,false,0.0
25998,-0.008300781,-0.019042969,-1.0361328,-0.005321126,-0.006385351,0.0010642252,205.50002,11.1,-15.6,43.264706,173.03995,0.0,1,0,0,3.257801,3.0820172,false,0.0
25998,-0.008300781,-0.019042969,-1.0361328,-0.005321126,-0.006385351,0.0010642252,205.50002,11.1,-15.6,43.264706,173.03995,0.0,1,0,0,3.257801,3.0820172,false,0.0
25998,-0.008300781,-0.019042969,-1.0361328,-0.005321126,-0.006385351,0.0010642252,205.50002,11.1,-15.6,43.264706,173.03995,0.0,1,0,0,3.257801,3.0820172,false,0.0
25998,-0.008300781,-0.019042969,-1.0361328,-0.005321126,-0.006385351,0.0010642252,205.50002,11.1,-15.6,43.264706,173.03995,0.0,1,0,0,3.257801,3.0820172,false,0.0
25998,-0.008300781,-0.019042969,-1.0361328,-0.005321126,-0.006385351,0.0010642252,205.50002,11.1,-15.6,43.264706,173.03995,0.0,1,0,0,3.257801,3.0820172,false,0.0
25998,-0.008300781,-0.019042969,-1.0361328,-0.005321126,-0.006385351,0.0010642252,205.50002,11.1,-15.6,43.264706,173.03995,0.0,1,0,0,3.257801,3.0820172,false,0.0
25998,-0.008300781,-0.019042969,-1.0361328,-0.005321126,-0.006385351,0.0010642252,205.50002,11.1,-15.6,43.264706,173.03995,0.0,1,0,0,3.257801,3.0820172,false,0.0
25998,-0.008300781,-0.019042969,-1.0361328,-0.005321126,-0.006385351,0.0010642252,205.50002,11.1,-15.6,43.264706,173.03995,0.0,1,0,0,3.257801,3.0820172,false,0.0
25998,-0.008300781,-0.019042969,-1.0361328,-0.005321126,-0.006385351,0.0010642252,205.50002,11.1,-15.6,43.264706,173.03995,0.0,1,0,0,3.257801,3.0820172,false,0.0
25998,-0.0073242188,-0.020996094,-1.0341797,-0.006385351,-0.004256901,0.0,203.70001,12.900001,-15.3,43.217648,173.03995,0.0,1,0,0,3.257801,3.0820172,false,0.0
26028,-0.0073242188,-0.020996094,-1.0341797,-0.006385351,-0.004256901,0.0,203.70001,12.900001,-15.3,43.217648,173.03995,0.0,1,0,0,3.257801,3.0820172,false,0.0
26028,-0.0073242188,-0.020996094,-1.0341797,-0.006385351,-0.004256901,0.0,203.70001,12.900001,-15.3,43.217648,173.03995,0.0,1,0,0,3.257801,3.0820172,false,0.0
26028,-0.0073242188,-0.020996094,-1.0341797,-0.006385351,-0.004256901,0.0,203.70001,12.900001,-15.3,43.217648,173.03995,0.0,1,0,0,3.257801,3.0820172,false,0.0
26028,-0.0073242188,-0.020996094,-1.0341797,-0.006385351,-0.004256901,0.0,203.70001,12.900001,-15.3,43.217648,173.03995,0.0,1,0,0,3.257801,3.0820172,false,0.0
26028,-0.0073242188,-0.020996094,-1.0341797,-0.006385351,-0.004256901,0.0,203.70001,12.900001,-15.3,43.217648,173.03995,0.0,1,0,0,3.257801,3.0820172,false,0.0
26028,-0.0073242188,-0.020996094,-1.0341797,-0.006385351,-0.004256901,0.0,203.70001,12.900001,-15.3,43.217648,173.03995,0.0,1,0,0,3.257801,3.0820172,false,0.0
26028,-0.0073242188,-0.020996094,-1.0341797,-0.006385351,-0.004256901,0.0,203.70001,12.900001,-15.3,43.217648,173.03995,0.0,1,0,0,3.257801,3.0820172,false,0.0
26028,-0.0073242188,-0.020996094,-1.0341797,-0.006385351,-0.004256901,0.0,203.70001,12.900001,-15.3,43.217648,173.03995,0.0,1,0,0,3.257801,3.0820172,false,0.0
26028,-0.0073242188,-0.020996094,-1.0341797,-0.006385351,-0.004256901,0.0,203.70001,12.900001,-15.3,43.217648,173.03995,0.0,1,0,0,3.257801,3.0820172,false,0.0
26028,-0.0073242188,-0.020996094,-1.0341797,-0.006385351,-0.004256901,0.0,203.70001,12.900001,-15.3,43.217648,173.03995,0.0,1,0,0,3.257801,3.0820172,false,0.0
26028,-0.0073242188,-0.020996094,-1.0341797,-0.006385351,-0.004256901,0.0,203.70001,12.900001,-15.3,43.217648,173.03995,0.0,1,0,0,3.257801,3.0820172,false,0.0
26028,-0.0073242188,-0.020996094,-1.0341797,-0.006385351,-0.004256901,0.0,203.70001,12.900001,-15.3,43.217648,173.03995,0.0,1,0,0,3.257801,3.0820172,false,0.0
26028,-0.0073242188,-0.020996094,-1.0341797,-0.006385351,-0.004256901,0.0,203.70001,12.900001,-15.3,43.217648,173.03995,0.0,1,0,0,3.257801,3.0820172,false,0.0
26028,-0.0073242188,-0.020996094,-1.0341797,-0.006385351,-0.004256901,0.0,203.70001,12.900001,-15.3,43.217648,173.03995,0.0,1,0,0,3.257801,3.0820172,false,0.0
26028,-0.0073242188,-0.020996094,-1.0341797,-0.006385351,-0.004256901,0.0,203.70001,12.900001,-15.3,43.217648,173.03995,0.0,1,0,0,3.257801,3.0820172,false,0.0
26028,-0.0073242188,-0.020996094,-1.0341797,-0.006385351,-0.004256901,0.0,203.70001,12.900001,-15.3,43.217648,173.03995,0.0,1,0,0,3.257801,3.0820172,false,0.0
26028,-0.0073242188,-0.020996094,-1.0341797,-0.006385351,-0.004256901,0.0,203.70001,12.900001,-15.3,43.217648,173.03995,0.0,1,0,0,3.257801,3.0820172,false,0.0
26028,-0.0073242188,-0.020996094,-1.0341797,-0.006385351,-0.004256901,0.0,203.70001,12.900001,-15.3,43.217648,173.03995,0.0,1,0,0,3.257801,3.0820172,false,0.0
26028,-0.0073242188,-0.020996094,-1.0341797,-0.006385351,-0.004256901,0.0,203.70001,12.900001,-15.3,43.217648,173.03995,0.0,1,0,0,3.257801,3.0820172,false,0.0
26028,-0.0073242188,-0.020996094,-1.0341797,-0.006385351,-0.004256901,0.0,203.70001,12.900001,-15.3,43.217648,173.03995,0.0,1,0,0,3.257801,3.0820172,false,0.0
26028,-0.0073242188,-0.020996094,-1.0341797,-0.006385351,-0.004256901,0.0,203.70001,12.900001,-15.3,43.217648,173.03995,0.0,1,0,0,3.257801,3.0820172,false,0.0
26028,-0.0073242188,-0.020996094,-1.0341797,-0.006385351,-0.004256901,0.0,203.70001,12.900001,-15.3,43.217648,173.03995,0.0,1,0,0,3.257801,3.0820172,false,0.0
26040,-0.0073242188,-0.020996094,-1.0341797,-0.006385351,-0.004256901,0.0,203.70001,12.900001,-15.3,43.217648,173.03995,0.0,1,0,0,3.257801,3.0820172,false,0.0
26040,-0.0073242188,-0.020996094,-1.0341797,-0.006385351,-0.004256901,0.0,203.70001,12.900001,-15.3,43.217648,173.03995,0.0,1,0,0,3.257801,3.0820172,false,0.0
26040,-0.0073242188,-0.020996094,-1.0341797,-0.006385351,-0.004256901,0.0,203.70001,12.900001,-15.3,43.217648,173.03995,0.0,1,0,0,3.257801,3.0820172,false,0.0
26040,-0.0073242188,-0.020996094,-1.0341797,-0.006385351,-0.004256901,0.0,203.70001,12.900001,-15.3,43.217648,173.03995,0.0,1,0,0,3.257801,3.0820172,false,0.0
26040,-0.0073242188,-0.020996094,-1.0341797,-0.006385351,-0.004256901,0.0,203.70001,12.900001,-15.3,43.217648,173.03995,0.0,1,0,0,3.257801,3.0820172,false,0.0
26040,-0.0073242188,-0.020996094,-1.0341797,-0.006385351,-0.004256901,0.0,203.70001,12.900001,-15.3,43.217648,173.03995,0.0,1,0,0,3.257801,3.0820172,false,0.0
26040,-0.0073242188,-0.020996094,-1.0341797,-0.006385351,-0.004256901,0.0,203.70001,12.900001,-15.3,43.217648,173.03995,0.0,1,0,0,3.257801,3.0820172,false,0.0
26040,-0.0073242188,-0.020996094,-1.0341797,-0.006385351,-0.004256901,0.0,203.70001,12.900001,-15.3,43.217648,173.03995,0.0,1,0,0,3.257801,3.0820172,false,0.0
26040,-0.0073242188,-0.020996094,-1.0341797,-0.006385351,-0.004256901,0.0,203.70001,12.900001,-15.3,43.217648,173.03995,0.0,1,0,0,3.257801,3.0820172,false,0.0
26040,-0.0073242188,-0.020996094,-1.0341797,-0.006385351,-0.004256901,0.0,203.70001,12.900001,-15.3,43.217648,173.03995,0.0,1,0,0,3.257801,3.0820172,false,0.0
26040,-0.0073242188,-0.020996094,-1.0341797,-0.006385351,-0.004256901,0.0,203.70001,12.900001,-15.3,43.217648,173.03995,0.0,1,0,0,3.257801,3.0820172,false,0.0
26040,-0.0073242188,-0.020996094,-1.0341797,-0.006385351,-0.004256901,0.0,203.70001,12.900001,-15.3,43.217648,173.03995,0.0,1,0,0,3.257801,3.0820172,false,0.0
26040,-0.0073242188,-0.020996094,-1.0341797,-0.006385351,-0.004256901,0.0,203.70001,12.900001,-15.3,43.217648,173.03995,0.0,1,0,0,3.257801,3.0820172,false,0.0
26040,-0.0073242188,-0.020996094,-1.0341797,-0.006385351,-0.004256901,0.0,203.70001,12.900001,-15.3,43.217648,173.03995,0.0,1,0,0,3.257801,3.0820172,false,0.0
26040,-0.0073242188,-0.020996094,-1.0341797,-0.006385351,-0.004256901,0.0,203.70001,12.900001,-15.3,43.217648,173.03995,0.0,1,0,0,3.257801,3.0820172,false,0.0
26040,-0.0073242188,-0.020996094,-1.0341797,-0.006385351,-0.004256901,0.0,203.70001,12.900001,-15.3,43.217648,173.03995,0.0,1,0,0,3.257801,3.0820172,false,0.0
26041,-0.0073242188,-0.020996094,-1.0341797,-0.006385351,-0.004256901,0.0,203.70001,12.900001,-15.3,43.217648,173.03995,0.0,1,0,0,3.257801,3.0820172,false,0.0
26041,-0.0073242188,-0.020996094,-1.0341797,-0.006385351,-0.004256901,0.0,203.70001,12.900001,-15.3,43.217648,173.03995,0.0,1,0,0,3.257801,3.0820172,false,0.0
26041,-0.0073242188,-0.020996094,-1.0341797,-0.006385351,-0.004256901,0.0,203.70001,12.900001,-15.3,43.217648,173.03995,0.0,1,0,0,3.257801,3.0820172,false,0.0
26041,-0.0073242188,-0.020996094,-1.0341797,-0.006385351,-0.004256901,0.0,203.70001,12.900001,-15.3,43.217648,173.03995,0.0,1,0,0,3.257801,3.0820172,false,0.0
26041,-0.0087890625,-0.023925781,-1.0380859,-0.005321126,-0.0031926755,0.0,204.3,12.0,-15.000001,43.288235,173.03995,0.0,1,0,0,3.2635996,3.0761425,false,0.0
26093,-0.0087890625,-0.023925781,-1.0380859,-0.005321126,-0.0031926755,0.0,204.3,12.0,-15.000001,43.288235,173.03995,0.0,1,0,0,3.2635996,3.0761425,false,0.0
26093,-0.0087890625,-0.023925781,-1.0380859,-0.005321126,-0.0031926755,0.0,204.3,12.0,-15.000001,43.288235,173.03995,0.0,1,0,0,3.2635996,3.0761425,false,0.0
26094,-0.0087890625,-0.023925781,-1.0380859,-0.005321126,-0.0031926755,0.0,204.3,12.0,-15.000001,43.288235,173.03995,0.0,1,0,0,3.2635996,3.0761425,false,0.0
26094,-0.0087890625,-0.023925781,-1.0380859,-0.005321126,-0.0031926755,0.0,204.3,12.0,-15.000001,43.288235,173.03995,0.0,1,0,0,3.2635996,3.0761425,false,0.0
26094,-0.0087890625,-0.023925781,-1.0380859,-0.005321126,-0.0031926755,0.0,204.3,12.0,-15.000001,43.288235,173.03995,0.0,1,0,0,3.2635996,3.0761425,false,0.0
26094,-0.0087890625,-0.023925781,-1.0380859,-0.005321126,-0.0031926755,0.0,204.3,12.0,-15.000001,43.288235,173.03995,0.0,1,0,0,3.2635996,3.0761425,false,0.0
26094,-0.0087890625,-0.023925781,-1.0380859,-0.005321126,-0.0031926755,0.0,204.3,12.0,-15.000001,43.288235,173.03995,0.0,1,0,0,3.2635996,3.0761425,false,0.0
26094,-0.0087890625,-0.023925781,-1.0380859,-0.005321126,-0.0031926755,0.0,204.3,12.0,-15.000001,43.288235,173.03995,0.0,1,0,0,3.2635996,3.0761425,false,0.0
26094,-0.0087890625,-0.023925781,-1.0380859,-0.005321126,-0.0031926755,0.0,204.3,12.0,-15.000001,43.288235,173.03995,0.0,1,0,0,3.2635996,3.0761425,false,0.0
26094,-0.0087890625,-0.023925781,-1.0380859,-0.005321126,-0.0031926755,0.0,204.3,12.0,-15.000001,43.288235,173.03995,0.0,1,0,0,3.2635996,3.0761425,false,0.0
26094,-0.0087890625,-0.023925781,-1.0380859,-0.005321126,-0.0031926755,0.0,204.3,12.0,-15.000001,43.288235,173.03995,0.0,1,0,0,3.2635996,3.0761425,false,0.0
26094,-0.0087890625,-0.023925781,-1.0380859,-0.005321126,-0.0031926755,0.0,204.3,12.0,-15.000001,43.288235,173.03995,0.0,1,0,0,3.2635996,3.0761425,false,0.0
26094,-0.0087890625,-0.023925781,-1.0380859,-0.005321126,-0.0031926755,0.0,204.3,12.0,-15.000001,43.288235,173.03995,0.0,1,0,0,3.2635996,3.0761425,false,0.0
26094,-0.0087890625,-0.023925781,-1.0380859,-0.005321126,-0.0031926755,0.0,204.3,12.0,-15.000001,43.288235,173.03995,0.0,1,0,0,3.2635996,3.0761425,false,0.0
26094,-0.0087890625,-0.023925781,-1.0380859,-0.005321126,-0.0031926755,0.0,204.3,12.0,-15.000001,43.288235,173.03995,0.0,1,0,0,3.2635996,3.0761425,false,0.0
26094,-0.0087890625,-0.023925781,-1.0380859,-0.005321126,-0.0031926755,0.0,204.3,12.0,-15.000001,43.288235,173.03995,0.0,1,0,0,3.2635996,3.0761425,false,0.0
26094,-0.0087890625,-0.023925781,-1.0380859,-0.005321126,-0.0031926755,0.0,204.3,12.0,-15.000001,43.288235,173.03995,0.0,1,0,0,3.2635996,3.0761425,false,0.0
26094,-0.0087890625,-0.023925781,-1.0380859,-0.005321126,-0.0031926755,0.0,204.3,12.0,-15.000001,43.288235,173.03995,0.0,1,0,0,3.2635996,3.0761425,false,0.0
26094,-0.0087890625,-0.023925781,-1.0380859,-0.005321126,-0.0031926755,0.0,204.3,12.0,-15.000001,43.288235,173.03995,0.0,1,0,0,3.2635996,3.0761425,false,0.0
26094,-0.0087890625,-0.023925781,-1.0380859,-0.005321126,-0.0031926755,0.0,204.3,12.0,-15.000001,43.288235,173.03995,0.0,1,0,0,3.2635996,3.0761425,false,0.0
26094,-0.0087890625,-0.023925781,-1.0380859,-0.005321126,-0.0031926755,0.0,204.3,12.0,-15.000001,43.288235,173.03995,0.0,1,0,0,3.2635996,3.0761425,false,0.0
26094,-0.0087890625,-0.023925781,-1.0380859,-0.005321126,-0.0031926755,0.0,204.3,12.0,-15.000001,43.288235,173.03995,0.0,1,0,0,3.2635996,3.0761425,false,0.0
26094,-0.0087890625,-0.023925781,-1.0380859,-0.005321126,-0.0031926755,0.0,204.3,12.0,-15.000001,43.288235,173.03995,0.0,1,0,0,3.2635996,3.0761425,false,0.0
26094,-0.0087890625,-0.023925781,-1.0380859,-0.005321126,-0.0031926755,0.0,204.3,12.0,-15.000001,43.288235,173.03995,0.0,1,0,0,3.2635996,3.0761425,false,0.0
26094,-0.0087890625,-0.023925781,-1.0380859,-0.005321126,-0.0031926755,0.0,204.3,12.0,-15.000001,43.288235,173.03995,0.0,1,0,0,3.2635996,3.0761425,false,0.0
26094,-0.0087890625,-0.023925781,-1.0380859,-0.005321126,-0.0031926755,0.0,204.3,12.0,-15.000001,43.288235,173.03995,0.0,1,0,0,3.2635996,3.0761425,false,0.0
26094,-0.0087890625,-0.023925781,-1.0380859,-0.005321126,-0.0031926755,0.0,204.3,12.0,-15.000001,43.288235,173.03995,0.0,1,0,0,3.2635996,3.0761425,false,0.0
26094,-0.0087890625,-0.023925781,-1.0380859,-0.005321126,-0.0031926755,0.0,204.3,12.0,-15.000001,43.288235,173.03995,0.0,1,0,0,3.2635996,3.0761425,false,0.0
26094,-0.0087890625,-0.023925781,-1.0380859,-0.005321126,-0.0031926755,0.0,204.3,12.0,-15.000001,43.288235,173.03995,0.0,1,0,0,3.2635996,3.0761425,false,0.0
26094,-0.0087890625,-0.023925781,-1.0380859,-0.005321126,-0.0031926755,0.0,204.3,12.0,-15.000001,43.288235,173.03995,0.0,1,0,0,3.2635996,3.0761425,false,0.0
26094,-0.0087890625,-0.023925781,-1.0380859,-0.005321126,-0.0031926755,0.0,204.3,12.0,-15.000001,43.288235,173.03995,0.0,1,0,0,3.2635996,3.0761425,false,0.0
26094,-0.0087890625,-0.023925781,-1.0380859,-0.005321126,-0.0031926755,0.0,204.3,12.0,-15.000001,43.288235,173.03995,0.0,1,0,0,3.2635996,3.0761425,false,0.0
26094,-0.0087890625,-0.023925781,-1.0380859,-0.005321126,-0.0031926755,0.0,204.3,12.0,-15.000001,43.288235,173.03995,0.0,1,0,0,3.2635996,3.0761425,false,0.0
26094,-0.0087890625,-0.023925781,-1.0380859,-0.005321126,-0.0031926755,0.0,204.3,12.0,-15.000001,43.288235,173.03995,0.0,1,0,0,3.2635996,3.0761425,false,0.0
26094,-0.0087890625,-0.023925781,-1.0380859,-0.005321126,-0.0031926755,0.0,204.3,12.0,-15.000001,43.288235,173.03995,0.0,1,0,0,3.2635996,3.0761425,false,0.0
26094,-0.0087890625,-0.023925781,-1.0380859,-0.005321126,-0.0031926755,0.0,204.3,12.0,-15.000001,43.288235,173.03995,0.0,1,0,0,3.2635996,3.0761425,false,0.0
26094,-0.0087890625,-0.023925781,-1.0380859,-0.005321126,-0.0031926755,0.0,204.3,12.0,-15.000001,43.288235,173.03995,0.0,1,0,0,3.2635996,3.0761425,false,0.0
26094,-0.0087890625,-0.023925781,-1.0380859,-0.005321126,-0.0031926755,0.0,204.3,12.0,-15.000001,43.288235,173.03995,0.0,1,0,0,3.2635996,3.0761425,false,0.0
26094,-0.0087890625,-0.023925781,-1.0380859,-0.005321126,-0.0031926755,0.0,204.3,12.0,-15.000001,43.288235,173.03995,0.0,1,0,0,3.2635996,3.0761425,false,0.0
26094,-0.0087890625,-0.023925781,-1.0380859,-0.005321126,-0.0031926755,0.0,204.3,12.0,-15.000001,43.288235,173.03995,0.0,1,0,0,3.2635996,3.0761425,false,0.0
26094,-0.0087890625,-0.023925781,-1.0380859,-0.005321126,-0.0031926755,0.0,204.3,12.0,-15.000001,43.288235,173.03995,0.0,1,0,0,3.2635996,3.0761425,false,0.0
26094,-0.0087890625,-0.023925781,-1.0380859,-0.005321126,-0.0031926755,0.0,204.3,12.0,-15.000001,43.288235,173.03995,0.0,1,0,0,3.2635996,3.0761425,false,0.0
26094,-0.009277344,-0.021484375,-1.0356445,-0.008513802,-0.005321126,0.0010642252,201.3,16.2,-15.6,43.29706,173.03995,0.0,1,0,0,3.2635996,3.0702677,false,0.0
26143,-0.009277344,-0.021484375,-1.0356445,-0.008513802,-0.005321126,0.0010642252,201.3,16.2,-15.6,43.29706,173.03995,0.0,1,0,0,3.2635996,3.0702677,false,0.0
26143,-0.009277344,-0.021484375,-1.0356445,-0.008513802,-0.005321126,0.0010642252,201.3,16.2,-15.6,43.29706,173.03995,0.0,1,0,0,3.2635996,3.0702677,false,0.0
26143,-0.009277344,-0.021484375,-1.0356445,-0.008513802,-0.005321126,0.0010642252,201.3,16.2,-15.6,43.29706,173.03995,0.0,1,0,0,3.2635996,3.0702677,false,0.0
26143,-0.009277344,-0.021484375,-1.0356445,-0.008513802,-0.005321126,0.0010642252,201.3,16.2,-15.6,43.29706,173.03995,0.0,1,0,0,3.2635996,3.0702677,false,0.0
26143,-0.009277344,-0.021484375,-1.0356445,-0.008513802,-0.005321126,0.0010642252,201.3,16.2,-15.6,43.29706,173.03995,0.0,1,0,0,3.2635996,3.0702677,false,0.0
26147,-0.009277344,-0.021484375,-1.0356445,-0.008513802,-0.005321126,0.0010642252,201.3,16.2,-15.6,43.29706,173.03995,0.0,1,0,0,3.2635996,3.0702677,false,0.0
26147,-0.009277344,-0.021484375,-1.0356445,-0.008513802,-0.005321126,0.0010642252,201.3,16.2,-15.6,43.29706,173.03995,0.0,1,0,0,3.2635996,3.0702677,false,0.0
26147,-0.009277344,-0.021484375,-1.0356445,-0.008513802,-0.005321126,0.0010642252,201.3,16.2,-15.6,43.29706,173.03995,0.0,1,0,0,3.2635996,3.0702677,false,0.0
26147,-0.009277344,-0.021484375,-1.0356445,-0.008513802,-0.005321126,0.0010642252,201.3,16.2,-15.6,43.29706,173.03995,0.0,1,0,0,3.2635996,3.0702677,false,0.0
26147,-0.009277344,-0.021484375,-1.0356445,-0.008513802,-0.005321126,0.0010642252,201.3,16.2,-15.6,43.29706,173.03995,0.0,1,0,0,3.2635996,3.0702677,false,0.0
26147,-0.009277344,-0.021484375,-1.0356445,-0.008513802,-0.005321126,0.0010642252,201.3,16.2,-15.6,43.29706,173.03995,0.0,1,0,0,3.2635996,3.0702677,false,0.0
26147,-0.009277344,-0.021484375,-1.0356445,-0.008513802,-0.005321126,0.0010642252,201.3,16.2,-15.6,43.29706,173.03995,0.0,1,0,0,3.2635996,3.0702677,false,0.0
26147,-0.009277344,-0.021484375,-1.0356445,-0.008513802,-0.005321126,0.0010642252,201.3,16.2,-15.6,43.29706,173.03995,0.0,1,0,0,3.2635996,3.0702677,false,0.0
26147,-0.009277344,-0.021484375,-1.0356445,-0.008513802,-0.005321126,0.0010642252,201.3,16.2,-15.6,43.29706,173.03995,0.0,1,0,0,3.2635996,3.0702677,false,0.0
26147,-0.009277344,-0.021484375,-1.0356445,-0.008513802,-0.005321126,0.0010642252,201.3,16.2,-15.6,43.29706,173.03995,0.0,1,0,0,3.2635996,3.0702677,false,0.0
26147,-0.009277344,-0.021484375,-1.0356445,-0.008513802,-0.005321126,0.0010642252,201.3,16.2,-15.6,43.29706,173.03995,0.0,1,0,0,3.2635996,3.0702677,false,0.0
26147,-0.009277344,-0.021484375,-1.0356445,-0.008513802,-0.005321126,0.0010642252,201.3,16.2,-15.6,43.29706,173.03995,0.0,1,0,0,3.2635996,3.0702677,false,0.0
26147,-0.009277344,-0.021484375,-1.0356445,-0.008513802,-0.005321126,0.0010642252,201.3,16.2,-15.6,43.29706,173.03995,0.0,1,0,0,3.2635996,3.0702677,false,0.0
26147,-0.009277344,-0.021484375,-1.0356445,-0.008513802,-0.005321126,0.0010642252,201.3,16.2,-15.6,43.29706,173.03995,0.0,1,0,0,3.2635996,3.0702677,false,0.0
26147,-0.009277344,-0.021484375,-1.0356445,-0.008513802,-0.005321126,0.0010642252,201.3,16.2,-15.6,43.29706,173.03995,0.0,1,0,0,3.2635996,3.0702677,false,0.0
26147,-0.009277344,-0.021484375,-1.0356445,-0.008513802,-0.005321126,0.0010642252,201.3,16.2,-15.6,43.29706,173.03995,0.0,1,0,0,3.2635996,3.0702677,false,0.0
26147,-0.009277344,-0.021484375,-1.0356445,-0.008513802,-0.005321126,0.0010642252,201.3,16.2,-15.6,43.29706,173.03995,0.0,1,0,0,3.2635996,3.0702677,false,0.0
26147,-0.009277344,-0.021484375,-1.0356445,-0.008513802,-0.005321126,0.0010642252,201.3,16.2,-15.6,43.29706,173.03995,0.0,1,0,0,3.2635996,3.0702677,false,0.0
26147,-0.009277344,-0.021484375,-1.0356445,-0.008513802,-0.005321126,0.0010642252,201.3,16.2,-15.6,43.29706,173.03995,0.0,1,0,0,3.2635996,3.0702677,false,0.0
26147,-0.009277344,-0.021484375,-1.0356445,-0.008513802,-0.005321126,0.0010642252,201.3,16.2,-15.6,43.29706,173.03995,0.0,1,0,0,3.2635996,3.0702677,false,0.0
26147,-0.009277344,-0.021484375,-1.0356445,-0.008513802,-0.005321126,0.0010642252,201.3,16.2,-15.6,43.29706,173.03995,0.0,1,0,0,3.2635996,3.0702677,false,0.0
26147,-0.009277344,-0.021484375,-1.0356445,-0.008513802,-0.005321126,0.0010642252,201.3,16.2,-15.6,43.29706,173.03995,0.0,1,0,0,3.2635996,3.0702677,false,0.0
26147,-0.009277344,-0.021484375,-1.0356445,-0.008513802,-0.005321126,0.0010642252,201.3,16.2,-15.6,43.29706,173.03995,0.0,1,0,0,3.2635996,3.0702677,false,0.0
26147,-0.009277344,-0.021484375,-1.0356445,-0.008513802,-0.005321126,0.0010642252,201.3,16.2,-15.6,43.29706,173.03995,0.0,1,0,0,3.2635996,3.0702677,false,0.0
26147,-0.009277344,-0.021484375,-1.0356445,-0.008513802,-0.005321126,0.0010642252,201.3,16.2,-15.6,43.29706,173.03995,0.0,1,0,0,3.2635996,3.0702677,false,0.0
26147,-0.009277344,-0.021484375,-1.0356445,-0.008513802,-0.005321126,0.0010642252,201.3,16.2,-15.6,43.29706,173.03995,0.0,1,0,0,3.2635996,3.0702677,false,0.0
26147,-0.009277344,-0.021484375,-1.0356445,-0.008513802,-0.005321126,0.0010642252,201.3,16.2,-15.6,43.29706,173.03995,0.0,1,0,0,3.2635996,3.0702677,false,0.0
26147,-0.009277344,-0.021484375,-1.0356445,-0.008513802,-0.005321126,0.0010642252,201.3,16.2,-15.6,43.29706,173.03995,0.0,1,0,0,3.2635996,3.0702677,false,0.0
26147,-0.009277344,-0.021484375,-1.0356445,-0.008513802,-0.005321126,0.0010642252,201.3,16.2,-15.6,43.29706,173.03995,0.0,1,0,0,3.2635996,3.0702677,false,0.0
26147,-0.009277344,-0.021484375,-1.0356445,-0.008513802,-0.005321126,0.0010642252,201.3,16.2,-15.6,43.29706,173.03995,0.0,1,0,0,3.2635996,3.0702677,false,0.0
26147,-0.009277344,-0.021484375,-1.0356445,-0.008513802,-0.005321126,0.0010642252,201.3,16.2,-15.6,43.29706,173.03995,0.0,1,0,0,3.2635996,3.0702677,false,0.0
26147,-0.009277344,-0.021484375,-1.0356445,-0.008513802,-0.005321126,0.0010642252,201.3,16.2,-15.6,43.29706,173.03995,0.0,1,0,0,3.2635996,3.0702677,false,0.0
26147,-0.009277344,-0.021484375,-1.0356445,-0.008513802,-0.005321126,0.0010642252,201.3,16.2,-15.6,43.29706,173.03995,0.0,1,0,0,3.2635996,3.0702677,false,0.0
26147,-0.009277344,-0.021484375,-1.0356445,-0.008513802,-0.005321126,0.0010642252,201.3,16.2,-15.6,43.29706,173.03995,0.0,1,0,0,3.2635996,3.0702677,false,0.0
26147,-0.009277344,-0.021484375,-1.0356445,-0.008513802,-0.005321126,0.0010642252,201.3,16.2,-15.6,43.29706,173.03995,0.0,1,0,0,3.2635996,3.0702677,false,0.0
26147,-0.009277344,-0.021484375,-1.0356445,-0.008513802,-0.005321126,0.0010642252,201.3,16.2,-15.6,43.29706,173.03995,0.0,1,0,0,3.2635996,3.0702677,false,0.0
26147,-0.009277344,-0.021484375,-1.0356445,-0.008513802,-0.005321126,0.0010642252,201.3,16.2,-15.6,43.29706,173.03995,0.0,1,0,0,3.2635996,3.0702677,false,0.0
26147,-0.0087890625,-0.018554688,-1.0288086,-0.0021284504,-0.004256901,0.0,201.90001,12.0,-11.700001,43.235294,173.03995,0.0,1,0,0,3.257801,3.0820172,false,0.0
26194,-0.0087890625,-0.018554688,-1.0288086,-0.0021284504,-0.004256901,0.0,201.90001,12.0,-11.700001,43.235294,173.03995,0.0,1,0,0,3.257801,3.0820172,false,0.0
26194,-0.0087890625,-0.018554688,-1.0288086,-0.0021284504,-0.004256901,0.0,201.90001,12.0,-11.700001,43.235294,173.03995,0.0,1,0,0,3.257801,3.0820172,false,0.0
26194,-0.0087890625,-0.018554688,-1.0288086,-0.0021284504,-0.004256901,0.0,201.90001,12.0,-11.700001,43.235294,173.03995,0.0,1,0,0,3.257801,3.0820172,false,0.0
26194,-0.0087890625,-0.018554688,-1.0288086,-0.0021284504,-0.004256901,0.0,201.90001,12.0,-11.700001,43.235294,173.03995,0.0,1,0,0,3.257801,3.0820172,false,0.0
26194,-0.0087890625,-0.018554688,-1.0288086,-0.0021284504,-0.004256901,0.0,201.90001,12.0,-11.700001,43.235294,173.03995,0.0,1,0,0,3.257801,3.0820172,false,0.0
26194,-0.0087890625,-0.018554688,-1.0288086,-0.0021284504,-0.004256901,0.0,201.90001,12.0,-11.700001,43.235294,173.03995,0.0,1,0,0,3.257801,3.0820172,false,0.0
26194,-0.0087890625,-0.018554688,-1.0288086,-0.0021284504,-0.004256901,0.0,201.90001,12.0,-11.700001,43.235294,173.03995,0.0,1,0,0,3.257801,3.0820172,false,0.0
26194,-0.0087890625,-0.018554688,-1.0288086,-0.0021284504,-0.004256901,0.0,201.90001,12.0,-11.700001,43.235294,173.03995,0.0,1,0,0,3.257801,3.0820172,false,0.0
26194,-0.0087890625,-0.018554688,-1.0288086,-0.0021284504,-0.004256901,0.0,201.90001,12.0,-11.700001,43.235294,173.03995,0.0,1,0,0,3.257801,3.0820172,false,0.0
26194,-0.0087890625,-0.018554688,-1.0288086,-0.0021284504,-0.004256901,0.0,201.90001,12.0,-11.700001,43.235294,173.03995,0.0,1,0,0,3.257801,3.0820172,false,0.0
26194,-0.0087890625,-0.018554688,-1.0288086,-0.0021284504,-0.004256901,0.0,201.90001,12.0,-11.700001,43.235294,173.03995,0.0,1,0,0,3.257801,3.0820172,false,0.0
26194,-0.0087890625,-0.018554688,-1.0288086,-0.0021284504,-0.004256901,0.0,201.90001,12.0,-11.700001,43.235294,173.03995,0.0,1,0,0,3.257801,3.0820172,false,0.0
26194,-0.0087890625,-0.018554688,-1.0288086,-0.0021284504,-0.004256901,0.0,201.90001,12.0,-11.700001,43.235294,173.03995,0.0,1,0,0,3.257801,3.0820172,false,0.0
26194,-0.0087890625,-0.018554688,-1.0288086,-0.0021284504,-0.004256901,0.0,201.90001,12.0,-11.700001,43.235294,173.03995,0.0,1,0,0,3.257801,3.0820172,false,0.0
26194,-0.0087890625,-0.018554688,-1.0288086,-0.0021284504,-0.004256901,0.0,201.90001,12.0,-11.700001,43.235294,173.03995,0.0,1,0,0,3.257801,3.0820172,false,0.0
26194,-0.0087890625,-0.018554688,-1.0288086,-0.0021284504,-0.004256901,0.0,201.90001,12.0,-11.700001,43.235294,173.03995,0.0,1,0,0,3.257801,3.0820172,false,0.0
26194,-0.0087890625,-0.018554688,-1.0288086,-0.0021284504,-0.004256901,0.0,201.90001,12.0,-11.700001,43.235294,173.03995,0.0,1,0,0,3.257801,3.0820172,false,0.0
26194,-0.0087890625,-0.018554688,-1.0288086,-0.0021284504,-0.004256901,0.0,201.90001,12.0,-11.700001,43.235294,173.03995,0.0,1,0,0,3.257801,3.0820172,false,0.0
26194,-0.0087890625,-0.018554688,-1.0288086,-0.0021284504,-0.004256901,0.0,201.90001,12.0,-11.700001,43.235294,173.03995,0.0,1,0,0,3.257801,3.0820172,false,0.0
26194,-0.0087890625,-0.018554688,-1.0288086,-0.0021284504,-0.004256901,0.0,201.90001,12.0,-11.700001,43.235294,173.03995,0.0,1,0,0,3.257801,3.0820172,false,0.0
26194,-0.0087890625,-0.018554688,-1.0288086,-0.0021284504,-0.004256901,0.0,201.90001,12.0,-11.700001,43.235294,173.03995,0.0,1,0,0,3.257801,3.0820172,false,0.0
26194,-0.0087890625,-0.018554688,-1.0288086,-0.0021284504,-0.004256901,0.0,201.90001,12.0,-11.700001,43.235294,173.03995,0.0,1,0,0,3.257801,3.0820172,false,0.0
26194,-0.0087890625,-0.018554688,-1.0288086,-0.0021284504,-0.004256901,0.0,201.90001,12.0,-11.700001,43.235294,173.03995,0.0,1,0,0,3.257801,3.0820172,false,0.0
26194,-0.0087890625,-0.018554688,-1.0288086,-0.0021284504,-0.004256901,0.0,201.90001,12.0,-11.700001,43.235294,173.03995,0.0,1,0,0,3.257801,3.0820172,false,0.0
26194,-0.0087890625,-0.018554688,-1.0288086,-0.0021284504,-0.004256901,0.0,201.90001,12.0,-11.700001,43.235294,173.03995,0.0,1,0,0,3.257801,3.0820172,false,0.0
26194,-0.0087890625,-0.018554688,-1.0288086,-0.0021284504,-0.004256901,0.0,201.90001,12.0,-11.700001,43.235294,173.03995,0.0,1,0,0,3.257801,3.0820172,false,0.0
26194,-0.0087890625,-0.018554688,-1.0288086,-0.0021284504,-0.004256901,0.0,201.90001,12.0,-11.700001,43.235294,173.03995,0.0,1,0,0,3.257801,3.0820172,false,0.0
26194,-0.0087890625,-0.018554688,-1.0288086,-0.0021284504,-0.004256901,0.0,201.90001,12.0,-11.700001,43.235294,173.03995,0.0,1,0,0,3.257801,3.0820172,false,0.0
26194,-0.0087890625,-0.018554688,-1.0288086,-0.0021284504,-0.004256901,0.0,201.90001,12.0,-11.700001,43.235294,173.03995,0.0,1,0,0,3.257801,3.0820172,false,0.0
26200,-0.0087890625,-0.018554688,-1.0288086,-0.0021284504,-0.004256901,0.0,201.90001,12.0,-11.700001,43.235294,173.03995,0.0,1,0,0,3.257801,3.0820172,false,0.0
26200,-0.0087890625,-0.018554688,-1.0288086,-0.0021284504,-0.004256901,0.0,201.90001,12.0,-11.700001,43.235294,173.03995,0.0,1,0,0,3.257801,3.0820172,false,0.0
26201,-0.0087890625,-0.018554688,-1.0288086,-0.0021284504,-0.004256901,0.0,201.90001,12.0,-11.700001,43.235294,173.03995,0.0,1,0,0,3.257801,3.0820172,false,0.0
26201,-0.0087890625,-0.018554688,-1.0288086,-0.0021284504,-0.004256901,0.0,201.90001,12.0,-11.700001,43.235294,173.03995,0.0,1,0,0,3.257801,3.0820172,false,0.0
26201,-0.0087890625,-0.018554688,-1.0288086,-0.0021284504,-0.004256901,0.0,201.90001,12.0,-11.700001,43.235294,173.03995,0.0,1,0,0,3.257801,3.0820172,false,0.0
26201,-0.0087890625,-0.018554688,-1.0288086,-0.0021284504,-0.004256901,0.0,201.90001,12.0,-11.700001,43.235294,173.03995,0.0,1,0,0,3.257801,3.0820172,false,0.0
26201,-0.0087890625,-0.018554688,-1.0288086,-0.0021284504,-0.004256901,0.0,201.90001,12.0,-11.700001,43.235294,173.03995,0.0,1,0,0,3.257801,3.0820172,false,0.0
26201,-0.0087890625,-0.018554688,-1.0288086,-0.0021284504,-0.004256901,0.0,201.90001,12.0,-11.700001,43.235294,173.03995,0.0,1,0,0,3.257801,3.0820172,false,0.0
26201,-0.0087890625,-0.018554688,-1.0288086,-0.0021284504,-0.004256901,0.0,201.90001,12.0,-11.700001,43.235294,173.03995,0.0,1,0,0,3.257801,3.0820172,false,0.0
26201,-0.0087890625,-0.018554688,-1.0288086,-0.0021284504,-0.004256901,0.0,201.90001,12.0,-11.700001,43.235294,173.03995,0.0,1,0,0,3.257801,3.0820172,false,0.0
26201,-0.0087890625,-0.018554688,-1.0288086,-0.0021284504,-0.004256901,0.0,201.90001,12.0,-11.700001,43.235294,173.03995,0.0,1,0,0,3.257801,3.0820172,false,0.0
26201,-0.0087890625,-0.018554688,-1.0288086,-0.0021284504,-0.004256901,0.0,201.90001,12.0,-11.700001,43.235294,173.03995,0.0,1,0,0,3.257801,3.0820172,false,0.0
26201,-0.0087890625,-0.018554688,-1.0288086,-0.0021284504,-0.004256901,0.0,201.90001,12.0,-11.700001,43.235294,173.03995,0.0,1,0,0,3.257801,3.0820172,false,0.0
26201,-0.0107421875,-0.021972656,-1.0366211,-0.005321126,-0.005321126,0.0010642252,205.20001,13.8,-16.800001,43.27647,173.03995,0.0,1,0,0,3.2635996,3.0702677,false,0.0
26240,-0.0107421875,-0.021972656,-1.0366211,-0.005321126,-0.005321126,0.0010642252,205.20001,13.8,-16.800001,43.27647,173.03995,0.0,1,0,0,3.2635996,3.0702677,false,0.0
26240,-0.0107421875,-0.021972656,-1.0366211,-0.005321126,-0.005321126,0.0010642252,205.20001,13.8,-16.800001,43.27647,173.03995,0.0,1,0,0,3.2635996,3.0702677,false,0.0
26240,-0.0107421875,-0.021972656,-1.0366211,-0.005321126,-0.005321126,0.0010642252,205.20001,13.8,-16.800001,43.27647,173.03995,0.0,1,0,0,3.2635996,3.0702677,false,0.0
26240,-0.0107421875,-0.021972656,-1.0366211,-0.005321126,-0.005321126,0.0010642252,205.20001,13.8,-16.800001,43.27647,173.03995,0.0,1,0,0,3.2635996,3.0702677,false,0.0
26240,-0.0107421875,-0.021972656,-1.0366211,-0.005321126,-0.005321126,0.0010642252,205.20001,13.8,-16.800001,43.27647,173.03995,0.0,1,0,0,3.2635996,3.0702677,false,0.0
26240,-0.0107421875,-0.021972656,-1.0366211,-0.005321126,-0.005321126,0.0010642252,205.20001,13.8,-16.800001,43.27647,173.03995,0.0,1,0,0,3.2635996,3.0702677,false,0.0
26240,-0.0107421875,-0.021972656,-1.0366211,-0.005321126,-0.005321126,0.0010642252,205.20001,13.8,-16.800001,43.27647,173.03995,0.0,1,0,0,3.2635996,3.0702677,false,0.0
26240,-0.0107421875,-0.021972656,-1.0366211,-0.005321126,-0.005321126,0.0010642252,205.20001,13.8,-16.800001,43.27647,173.03995,0.0,1,0,0,3.2635996,3.0702677,false,0.0
26240,-0.0107421875,-0.021972656,-1.0366211,-0.005321126,-0.005321126,0.0010642252,205.20001,13.8,-16.800001,43.27647,173.03995,0.0,1,0,0,3.2635996,3.0702677,false,0.0
26240,-0.0107421875,-0.021972656,-1.0366211,-0.005321126,-0.005321126,0.0010642252,205.20001,13.8,-16.800001,43.27647,173.03995,0.0,1,0,0,3.2635996,3.0702677,false,0.0
26240,-0.0107421875,-0.021972656,-1.0366211,-0.005321126,-0.005321126,0.0010642252,205.20001,13.8,-16.800001,43.27647,173.03995,0.0,1,0,0,3.2635996,3.0702677,false,0.0
26240,-0.0107421875,-0.021972656,-1.0366211,-0.005321126,-0.005321126,0.0010642252,205.20001,13.8,-16.800001,43.27647,173.03995,0.0,1,0,0,3.2635996,3.0702677,false,0.0
26240,-0.0107421875,-0.021972656,-1.0366211,-0.005321126,-0.005321126,0.0010642252,205.20001,13.8,-16.800001,43.27647,173.03995,0.0,1,0,0,3.2635996,3.0702677,false,0.0
26240,-0.0107421875,-0.021972656,-1.0366211,-0.005321126,-0.005321126,0.0010642252,205.20001,13.8,-16.800001,43.27647,173.03995,0.0,1,0,0,3.2635996,3.0702677,false,0.0
26240,-0.0107421875,-0.021972656,-1.0366211,-0.005321126,-0.005321126,0.0010642252,205.20001,13.8,-16.800001,43.27647,173.03995,0.0,1,0,0,3.2635996,3.0702677,false,0.0
26240,-0.0107421875,-0.021972656,-1.0366211,-0.005321126,-0.005321126,0.0010642252,205.20001,13.8,-16.800001,43.27647,173.03995,0.0,1,0,0,3.2635996,3.0702677,false,0.0
26240,-0.0107421875,-0.021972656,-1.0366211,-0.005321126,-0.005321126,0.0010642252,205.20001,13.8,-16.800001,43.27647,173.03995,0.0,1,0,0,3.2635996,3.0702677,false,0.0
26240,-0.0107421875,-0.021972656,-1.0366211,-0.005321126,-0.005321126,0.0010642252,205.20001,13.8,-16.800001,43.27647,173.03995,0.0,1,0,0,3.2635996,3.0702677,false,0.0
26240,-0.0107421875,-0.021972656,-1.0366211,-0.005321126,-0.005321126,0.0010642252,205.20001,13.8,-16.800001,43.27647,173.03995,0.0,1,0,0,3.2635996,3.0702677,false,0.0
26240,-0.0107421875,-0.021972656,-1.0366211,-0.005321126,-0.005321126,0.0010642252,205.20001,13.8,-16.800001,43.27647,173.03995,0.0,1,0,0,3.2635996,3.0702677,false,0.0
26240,-0.0107421875,-0.021972656,-1.0366211,-0.005321126,-0.005321126,0.0010642252,205.20001,13.8,-16.800001,43.27647,173.03995,0.0,1,0,0,3.2635996,3.0702677,false,0.0
26240,-0.0107421875,-0.021972656,-1.0366211,-0.005321126,-0.005321126,0.0010642252,205.20001,13.8,-16.800001,43.27647,173.03995,0.0,1,0,0,3.2635996,3.0702677,false,0.0
26240,-0.0107421875,-0.021972656,-1.0366211,-0.005321126,-0.005321126,0.0010642252,205.20001,13.8,-16.800001,43.27647,173.03995,0.0,1,0,0,3.2635996,3.0702677,false,0.0
26240,-0.0107421875,-0.021972656,-1.0366211,-0.005321126,-0.005321126,0.0010642252,205.20001,13.8,-16.800001,43.27647,173.03995,0.0,1,0,0,3.2635996,3.0702677,false,0.0
26240,-0.0107421875,-0.021972656,-1.0366211,-0.005321126,-0.005321126,0.0010642252,205.20001,13.8,-16.800001,43.27647,173.03995,0.0,1,0,0,3.2635996,3.0702677,false,0.0
26240,-0.0107421875,-0.021972656,-1.0366211,-0.005321126,-0.005321126,0.0010642252,205.20001,13.8,-16.800001,43.27647,173.03995,0.0,1,0,0,3.2635996,3.0702677,false,0.0
26240,-0.0107421875,-0.021972656,-1.0366211,-0.005321126,-0.005321126,0.0010642252,205.20001,13.8,-16.800001,43.27647,173.03995,0.0,1,0,0,3.2635996,3.0702677,false,0.0
26240,-0.0107421875,-0.021972656,-1.0366211,-0.005321126,-0.005321126,0.0010642252,205.20001,13.8,-16.800001,43.27647,173.03995,0.0,1,0,0,3.2635996,3.0702677,false,0.0
26240,-0.0107421875,-0.021972656,-1.0366211,-0.005321126,-0.005321126,0.0010642252,205.20001,13.8,-16.800001,43.27647,173.03995,0.0,1,0,0,3.2635996,3.0702677,false,0.0
26240,-0.0107421875,-0.021972656,-1.0366211,-0.005321126,-0.005321126,0.0010642252,205.20001,13.8,-16.800001,43.27647,173.03995,0.0,1,0,0,3.2635996,3.0702677,false,0.0
26240,-0.0107421875,-0.021972656,-1.0366211,-0.005321126,-0.005321126,0.0010642252,205.20001,13.8,-16.800001,43.27647,173.03995,0.0,1,0,0,3.2635996,3.0702677,false,0.0
26240,-0.0107421875,-0.021972656,-1.0366211,-0.005321126,-0.005321126,0.0010642252,205.20001,13.8,-16.800001,43.27647,173.03995,0.0,1,0,0,3.2635996,3.0702677,false,0.0
26240,-0.0107421875,-0.021972656,-1.0366211,-0.005321126,-0.005321126,0.0010642252,205.20001,13.8,-16.800001,43.27647,173.03995,0.0,1,0,0,3.2635996,3.0702677,false,0.0
26240,-0.0107421875,-0.021972656,-1.0366211,-0.005321126,-0.005321126,0.0010642252,205.20001,13.8,-16.800001,43.27647,173.03995,0.0,1,0,0,3.2635996,3.0702677,false,0.0
26240,-0.0107421875,-0.021972656,-1.0366211,-0.005321126,-0.005321126,0.0010642252,205.20001,13.8,-16.800001,43.27647,173.03995,0.0,1,0,0,3.2635996,3.0702677,false,0.0
26240,-0.0107421875,-0.021972656,-1.0366211,-0.005321126,-0.005321126,0.0010642252,205.20001,13.8,-16.800001,43.27647,173.03995,0.0,1,0,0,3.2635996,3.0702677,false,0.0
26240,-0.0107421875,-0.021972656,-1.0366211,-0.005321126,-0.005321126,0.0010642252,205.20001,13.8,-16.800001,43.27647,173.03995,0.0,1,0,0,3.2635996,3.0702677,false,0.0
26240,-0.0107421875,-0.021972656,-1.0366211,-0.005321126,-0.005321126,0.0010642252,205.20001,13.8,-16.800001,43.27647,173.03995,0.0,1,0,0,3.2635996,3.0702677,false,0.0
26240,-0.0107421875,-0.021972656,-1.0366211,-0.005321126,-0.005321126,0.0010642252,205.20001,13.8,-16.800001,43.27647,173.03995,0.0,1,0,0,3.2635996,3.0702677,false,0.0
26240,-0.0107421875,-0.021972656,-1.0366211,-0.005321126,-0.005321126,0.0010642252,205.20001,13.8,-16.800001,43.27647,173.03995,0.0,1,0,0,3.2635996,3.0702677,false,0.0
26240,-0.0107421875,-0.021972656,-1.0366211,-0.005321126,-0.005321126,0.0010642252,205.20001,13.8,-16.800001,43.27647,173.03995,0.0,1,0,0,3.2635996,3.0702677,false,0.0
26240,-0.0107421875,-0.021972656,-1.0366211,-0.005321126,-0.005321126,0.0010642252,205.20001,13.8,-16.800001,43.27647,173.03995,0.0,1,0,0,3.2635996,3.0702677,false,0.0
26241,-0.009765625,-0.020996094,-1.0375977,-0.009578027,-0.0031926755,0.0021284504,206.40001,13.200001,-15.000001,43.27941,173.03995,0.0,1,0,0,3.240177,3.0702677,false,0.0
26292,-0.009765625,-0.020996094,-1.0375977,-0.009578027,-0.0031926755,0.0021284504,206.40001,13.200001,-15.000001,43.27941,173.03995,0.0,1,0,0,3.240177,3.0702677,false,0.0
26292,-0.009765625,-0.020996094,-1.0375977,-0.009578027,-0.0031926755,0.0021284504,206.40001,13.200001,-15.000001,43.27941,173.03995,0.0,1,0,0,3.240177,3.0702677,false,0.0
26292,-0.009765625,-0.020996094,-1.0375977,-0.009578027,-0.0031926755,0.0021284504,206.40001,13.200001,-15.000001,43.27941,173.03995,0.0,1,0,0,3.240177,3.0702677,false,0.0
26292,-0.009765625,-0.020996094,-1.0375977,-0.009578027,-0.0031926755,0.0021284504,206.40001,13.200001,-15.000001,43.27941,173.03995,0.0,1,0,0,3.240177,3.0702677,false,0.0
26295,-0.009765625,-0.020996094,-1.0375977,-0.009578027,-0.0031926755,0.0021284504,206.40001,13.200001,-15.000001,43.27941,173.03995,0.0,1,0,0,3.240177,3.0702677,false,0.0
26295,-0.009765625,-0.020996094,-1.0375977,-0.009578027,-0.0031926755,0.0021284504,206.40001,13.200001,-15.000001,43.27941,173.03995,0.0,1,0,0,3.240177,3.0702677,false,0.0
26295,-0.009765625,-0.020996094,-1.0375977,-0.009578027,-0.0031926755,0.0021284504,206.40001,13.200001,-15.000001,43.27941,173.03995,0.0,1,0,0,3.240177,3.0702677,false,0.0
26295,-0.009765625,-0.020996094,-1.0375977,-0.009578027,-0.0031926755,0.0021284504,206.40001,13.200001,-15.000001,43.27941,173.03995,0.0,1,0,0,3.240177,3.0702677,false,0.0
26295,-0.009765625,-0.020996094,-1.0375977,-0.009578027,-0.0031926755,0.0021284504,206.40001,13.200001,-15.000001,43.27941,173.03995,0.0,1,0,0,3.240177,3.0702677,false,0.0
26295,-0.009765625,-0.020996094,-1.0375977,-0.009578027,-0.0031926755,0.0021284504,206.40001,13.200001,-15.000001,43.27941,173.03995,0.0,1,0,0,3.240177,3.0702677,false,0.0
26295,-0.009765625,-0.020996094,-1.0375977,-0.009578027,-0.0031926755,0.0021284504,206.40001,13.200001,-15.000001,43.27941,173.03995,0.0,1,0,0,3.240177,3.0702677,false,0.0
26295,-0.009765625,-0.020996094,-1.0375977,-0.009578027,-0.0031926755,0.0021284504,206.40001,13.200001,-15.000001,43.27941,173.03995,0.0,1,0,0,3.240177,3.0702677,false,0.0
26295,-0.009765625,-0.020996094,-1.0375977,-0.009578027,-0.0031926755,0.0021284504,206.40001,13.200001,-15.000001,43.27941,173.03995,0.0,1,0,0,3.240177,3.0702677,false,0.0
26295,-0.009765625,-0.020996094,-1.0375977,-0.009578027,-0.0031926755,0.0021284504,206.40001,13.200001,-15.000001,43.27941,173.03995,0.0,1,0,0,3.240177,3.0702677,false,0.0
26295,-0.009765625,-0.020996094,-1.0375977,-0.009578027,-0.0031926755,0.0021284504,206.40001,13.200001,-15.000001,43.27941,173.03995,0.0,1,0,0,3.240177,3.0702677,false,0.0
26295,-0.009765625,-0.020996094,-1.0375977,-0.009578027,-0.0031926755,0.0021284504,206.40001,13.200001,-15.000001,43.27941,173.03995,0.0,1,0,0,3.240177,3.0702677,false,0.0
26295,-0.009765625,-0.020996094,-1.0375977,-0.009578027,-0.0031926755,0.0021284504,206.40001,13.200001,-15.000001,43.27941,173.03995,0.0,1,0,0,3.240177,3.0702677,false,0.0
26295,-0.009765625,-0.020996094,-1.0375977,-0.009578027,-0.0031926755,0.0021284504,206.40001,13.200001,-15.000001,43.27941,173.03995,0.0,1,0,0,3.240177,3.0702677,false,0.0
26295,-0.009765625,-0.020996094,-1.0375977,-0.009578027,-0.0031926755,0.0021284504,206.40001,13.200001,-15.000001,43.27941,173.03995,0.0,1,0,0,3.240177,3.0702677,false,0.0
26295,-0.009765625,-0.020996094,-1.0375977,-0.009578027,-0.0031926755,0.0021284504,206.40001,13.200001,-15.000001,43.27941,173.03995,0.0,1,0,0,3.240177,3.0702677,false,0.0
26295,-0.009765625,-0.020996094,-1.0375977,-0.009578027,-0.0031926755,0.0021284504,206.40001,13.200001,-15.000001,43.27941,173.03995,0.0,1,0,0,3.240177,3.0702677,false,0.0
26295,-0.009765625,-0.020996094,-1.0375977,-0.009578027,-0.0031926755,0.0021284504,206.40001,13.200001,-15.000001,43.27941,173.03995,0.0,1,0,0,3.240177,3.0702677,false,0.0
26295,-0.009765625,-0.020996094,-1.0375977,-0.009578027,-0.0031926755,0.0021284504,206.40001,13.200001,-15.000001,43.27941,173.03995,0.0,1,0,0,3.240177,3.0702677,false,0.0
26295,-0.009765625,-0.020996094,-1.0375977,-0.009578027,-0.0031926755,0.0021284504,206.40001,13.200001,-15.000001,43.27941,173.03995,0.0,1,0,0,3.240177,3.0702677,false,0.0
26295,-0.009765625,-0.020996094,-1.0375977,-0.009578027,-0.0031926755,0.0021284504,206.40001,13.200001,-15.000001,43.27941,173.03995,0.0,1,0,0,3.240177,3.0702677,false,0.0
26295,-0.009765625,-0.020996094,-1.0375977,-0.009578027,-0.0031926755,0.0021284504,206.40001,13.200001,-15.000001,43.27941,173.03995,0.0,1,0,0,3.240177,3.0702677,false,0.0
26295,-0.009765625,-0.020996094,-1.0375977,-0.009578027,-0.0031926755,0.0021284504,206.40001,13.200001,-15.000001,43.27941,173.03995,0.0,1,0,0,3.240177,3.0702677,false,0.0
26295,-0.009765625,-0.020996094,-1.0375977,-0.009578027,-0.0031926755,0.0021284504,206.40001,13.200001,-15.000001,43.27941,173.03995,0.0,1,0,0,3.240177,3.0702677,false,0.0
26295,-0.009765625,-0.020996094,-1.0375977,-0.009578027,-0.0031926755,0.0021284504,206.40001,13.200001,-15.000001,43.27941,173.03995,0.0,1,0,0,3.240177,3.0702677,false,0.0
26295,-0.009765625,-0.020996094,-1.0375977,-0.009578027,-0.0031926755,0.0021284504,206.40001,13.200001,-15.000001,43.27941,173.03995,0.0,1,0,0,3.240177,3.0702677,false,0.0
26295,-0.009765625,-0.020996094,-1.0375977,-0.009578027,-0.0031926755,0.0021284504,206.40001,13.200001,-15.000001,43.27941,173.03995,0.0,1,0,0,3.240177,3.0702677,false,0.0
26295,-0.009765625,-0.020996094,-1.0375977,-0.009578027,-0.0031926755,0.0021284504,206.40001,13.200001,-15.000001,43.27941,173.03995,0.0,1,0,0,3.240177,3.0702677,false,0.0
26295,-0.009765625,-0.020996094,-1.0375977,-0.009578027,-0.0031926755,0.0021284504,206.40001,13.200001,-15.000001,43.27941,173.03995,0.0,1,0,0,3.240177,3.0702677,false,0.0
26295,-0.009765625,-0.020996094,-1.0375977,-0.009578027,-0.0031926755,0.0021284504,206.40001,13.200001,-15.000001,43.27941,173.03995,0.0,1,0,0,3.240177,3.0702677,false,0.0
26295,-0.009765625,-0.020996094,-1.0375977,-0.009578027,-0.0031926755,0.0021284504,206.40001,13.200001,-15.000001,43.27941,173.03995,0.0,1,0,0,3.240177,3.0702677,false,0.0
26295,-0.009765625,-0.020996094,-1.0375977,-0.009578027,-0.0031926755,0.0021284504,206.40001,13.200001,-15.000001,43.27941,173.03995,0.0,1,0,0,3.240177,3.0702677,false,0.0
26295,-0.009765625,-0.020996094,-1.0375977,-0.009578027,-0.0031926755,0.0021284504,206.40001,13.200001,-15.000001,43.27941,173.03995,0.0,1,0,0,3.240177,3.0702677,false,0.0
26295,-0.009765625,-0.020996094,-1.0375977,-0.009578027,-0.0031926755,0.0021284504,206.40001,13.200001,-15.000001,43.27941,173.03995,0.0,1,0,0,3.240177,3.0702677,false,0.0
26295,-0.009765625,-0.020996094,-1.0375977,-0.009578027,-0.0031926755,0.0021284504,206.40001,13.200001,-15.000001,43.27941,173.03995,0.0,1,0,0,3.240177,3.0702677,false,0.0
26295,-0.009765625,-0.020996094,-1.0375977,-0.009578027,-0.0031926755,0.0021284504,206.40001,13.200001,-15.000001,43.27941,173.03995,0.0,1,0,0,3.240177,3.0702677,false,0.0
26295,-0.009765625,-0.020996094,-1.0375977,-0.009578027,-0.0031926755,0.0021284504,206.40001,13.200001,-15.000001,43.27941,173.03995,0.0,1,0,0,3.240177,3.0702677,false,0.0
26295,-0.009765625,-0.020996094,-1.0375977,-0.009578027,-0.0031926755,0.0021284504,206.40001,13.200001,-15.000001,43.27941,173.03995,0.0,1,0,0,3.240177,3.0702677,false,0.0
26295,-0.010253906,-0.021484375,-1.0317383,-0.004256901,-0.0031926755,0.0021284504,201.6,14.400001,-15.3,43.285294,173.03995,0.0,1,0,0,3.2635996,3.0702677,false,0.0
26352,-0.010253906,-0.021484375,-1.0317383,-0.004256901,-0.0031926755,0.0021284504,201.6,14.400001,-15.3,43.285294,173.03995,0.0,1,0,0,3.2635996,3.0702677,false,0.0
26352,-0.010253906,-0.021484375,-1.0317383,-0.004256901,-0.0031926755,0.0021284504,201.6,14.400001,-15.3,43.285294,173.03995,0.0,1,0,0,3.2635996,3.0702677,false,0.0
26352,-0.010253906,-0.021484375,-1.0317383,-0.004256901,-0.0031926755,0.0021284504,201.6,14.400001,-15.3,43.285294,173.03995,0.0,1,0,0,3.2635996,3.0702677,false,0.0
26352,-0.010253906,-0.021484375,-1.0317383,-0.004256901,-0.0031926755,0.0021284504,201.6,14.400001,-15.3,43.285294,173.03995,0.0,1,0,0,3.2635996,3.0702677,false,0.0
26352,-0.010253906,-0.021484375,-1.0317383,-0.004256901,-0.0031926755,0.0021284504,201.6,14.400001,-15.3,43.285294,173.03995,0.0,1,0,0,3.2635996,3.0702677,false,0.0
26352,-0.010253906,-0.021484375,-1.0317383,-0.004256901,-0.0031926755,0.0021284504,201.6,14.400001,-15.3,43.285294,173.03995,0.0,1,0,0,3.2635996,3.0702677,false,0.0
26352,-0.010253906,-0.021484375,-1.0317383,-0.004256901,-0.0031926755,0.0021284504,201.6,14.400001,-15.3,43.285294,173.03995,0.0,1,0,0,3.2635996,3.0702677,false,0.0
26352,-0.010253906,-0.021484375,-1.0317383,-0.004256901,-0.0031926755,0.0021284504,201.6,14.400001,-15.3,43.285294,173.03995,0.0,1,0,0,3.2635996,3.0702677,false,0.0
26352,-0.010253906,-0.021484375,-1.0317383,-0.004256901,-0.0031926755,0.0021284504,201.6,14.400001,-15.3,43.285294,173.03995,0.0,1,0,0,3.2635996,3.0702677,false,0.0
26352,-0.010253906,-0.021484375,-1.0317383,-0.004256901,-0.0031926755,0.0021284504,201.6,14.400001,-15.3,43.285294,173.03995,0.0,1,0,0,3.2635996,3.0702677,false,0.0
26352,-0.010253906,-0.021484375,-1.0317383,-0.004256901,-0.0031926755,0.0021284504,201.6,14.400001,-15.3,43.285294,173.03995,0.0,1,0,0,3.2635996,3.0702677,false,0.0
26352,-0.010253906,-0.021484375,-1.0317383,-0.004256901,-0.0031926755,0.0021284504,201.6,14.400001,-15.3,43.285294,173.03995,0.0,1,0,0,3.2635996,3.0702677,false,0.0
26352,-0.010253906,-0.021484375,-1.0317383,-0.004256901,-0.0031926755,0.0021284504,201.6,14.400001,-15.3,43.285294,173.03995,0.0,1,0,0,3.2635996,3.0702677,false,0.0
26352,-0.010253906,-0.021484375,-1.0317383,-0.004256901,-0.0031926755,0.0021284504,201.6,14.400001,-15.3,43.285294,173.03995,0.0,1,0,0,3.2635996,3.0702677,false,0.0
26352,-0.010253906,-0.021484375,-1.0317383,-0.004256901,-0.0031926755,0.0021284504,201.6,14.400001,-15.3,43.285294,173.03995,0.0,1,0,0,3.2635996,3.0702677,false,0.0
26352,-0.010253906,-0.021484375,-1.0317383,-0.004256901,-0.0031926755,0.0021284504,201.6,14.400001,-15.3,43.285294,173.03995,0.0,1,0,0,3.2635996,3.0702677,false,0.0
26352,-0.010253906,-0.021484375,-1.0317383,-0.004256901,-0.0031926755,0.0021284504,201.6,14.400001,-15.3,43.285294,173.03995,0.0,1,0,0,3.2635996,3.0702677,false,0.0
26352,-0.010253906,-0.021484375,-1.0317383,-0.004256901,-0.0031926755,0.0021284504,201.6,14.400001,-15.3,43.285294,173.03995,0.0,1,0,0,3.2635996,3.0702677,false,0.0
26352,-0.010253906,-0.021484375,-1.0317383,-0.004256901,-0.0031926755,0.0021284504,201.6,14.400001,-15.3,43.285294,173.03995,0.0,1,0,0,3.2635996,3.0702677,false,0.0
26352,-0.010253906,-0.021484375,-1.0317383,-0.004256901,-0.0031926755,0.0021284504,201.6,14.400001,-15.3,43.285294,173.03995,0.0,1,0,0,3.2635996,3.0702677,false,0.0
26352,-0.010253906,-0.021484375,-1.0317383,-0.004256901,-0.0031926755,0.0021284504,201.6,14.400001,-15.3,43.285294,173.03995,0.0,1,0,0,3.2635996,3.0702677,false,0.0
26352,-0.010253906,-0.021484375,-1.0317383,-0.004256901,-0.0031926755,0.0021284504,201.6,14.400001,-15.3,43.285294,173.03995,0.0,1,0,0,3.2635996,3.0702677,false,0.0
26352,-0.010253906,-0.021484375,-1.0317383,-0.004256901,-0.0031926755,0.0021284504,201.6,14.400001,-15.3,43.285294,173.03995,0.0,1,0,0,3.2635996,3.0702677,false,0.0
26352,-0.010253906,-0.021484375,-1.0317383,-0.004256901,-0.0031926755,0.0021284504,201.6,14.400001,-15.3,43.285294,173.03995,0.0,1,0,0,3.2635996,3.0702677,false,0.0
26352,-0.010253906,-0.021484375,-1.0317383,-0.004256901,-0.0031926755,0.0021284504,201.6,14.400001,-15.3,43.285294,173.03995,0.0,1,0,0,3.2635996,3.0702677,false,0.0
26352,-0.010253906,-0.021484375,-1.0317383,-0.004256901,-0.0031926755,0.0021284504,201.6,14.400001,-15.3,43.285294,173.03995,0.0,1,0,0,3.2635996,3.0702677,false,0.0
26352,-0.010253906,-0.021484375,-1.0317383,-0.004256901,-0.0031926755,0.0021284504,201.6,14.400001,-15.3,43.285294,173.03995,0.0,1,0,0,3.2635996,3.0702677,false,0.0
