timestamp_ms,accX,accY,accZ,omegaX,omegaY,omegaZ,magX,magY,magZ,temp,deg,duty,isStop,isCurve,isSlope,V_Lipo,V_Battery,isSlipping, slipMagnitude
18235,0.0,0.0,0.0,0.0,0.0,0.0,0.0,0.0,0.0,0.0,0.0,0.0,0,0,0,0.0,0.0,false,0.0
18300,0.0,0.0,0.0,0.0,0.0,0.0,0.0,0.0,0.0,0.0,0.0,0.0,0,0,0,0.0,0.0,false,0.0
18300,0.0,0.0,0.0,0.0,0.0,0.0,0.0,0.0,0.0,0.0,0.0,0.0,0,0,0,0.0,0.0,false,0.0
18300,0.0,0.0,0.0,0.0,0.0,0.0,0.0,0.0,0.0,0.0,0.0,0.0,0,0,0,0.0,0.0,false,0.0
18300,0.0,0.0,0.0,0.0,0.0,0.0,0.0,0.0,0.0,0.0,0.0,0.0,0,0,0,0.0,0.0,false,0.0
18300,0.0,0.0,0.0,0.0,0.0,0.0,0.0,0.0,0.0,0.0,0.0,0.0,0,0,0,0.0,0.0,false,0.0
18300,0.0,0.0,0.0,0.0,0.0,0.0,0.0,0.0,0.0,0.0,0.0,0.0,0,0,0,0.0,0.0,false,0.0
18300,0.0,0.0,0.0,0.0,0.0,0.0,0.0,0.0,0.0,0.0,0.0,0.0,0,0,0,0.0,0.0,false,0.0
18301,0.0,0.0,0.0,0.0,0.0,0.0,0.0,0.0,0.0,0.0,0.0,0.0,0,0,0,0.0,0.0,false,0.0
18301,0.0,0.0,0.0,0.0,0.0,0.0,0.0,0.0,0.0,0.0,0.0,0.0,0,0,0,0.0,0.0,false,0.0
18301,0.0,0.0,0.0,0.0,0.0,0.0,0.0,0.0,0.0,0.0,0.0,0.0,0,0,0,0.0,0.0,false,0.0
18301,0.0,0.0,0.0,0.0,0.0,0.0,0.0,0.0,0.0,0.0,0.0,0.0,0,0,0,0.0,0.0,false,0.0
18301,0.0,0.0,0.0,0.0,0.0,0.0,0.0,0.0,0.0,0.0,0.0,0.0,0,0,0,0.0,0.0,false,0.0
18301,0.0,0.0,0.0,0.0,0.0,0.0,0.0,0.0,0.0,0.0,0.0,0.0,0,0,0,0.0,0.0,false,0.0
18301,0.0,0.0,0.0,0.0,0.0,0.0,0.0,0.0,0.0,0.0,0.0,0.0,0,0,0,0.0,0.0,false,0.0
18302,0.0,0.0,0.0,0.0,0.0,0.0,0.0,0.0,0.0,0.0,0.0,0.0,0,0,0,0.0,0.0,false,0.0
18302,0.0,0.0,0.0,0.0,0.0,0.0,0.0,0.0,0.0,0.0,0.0,0.0,0,0,0,0.0,0.0,false,0.0
18302,0.0,0.0,0.0,0.0,0.0,0.0,0.0,0.0,0.0,0.0,0.0,0.0,0,0,0,0.0,0.0,false,0.0
18302,0.0,0.0,0.0,0.0,0.0,0.0,0.0,0.0,0.0,0.0,0.0,0.0,0,0,0,0.0,0.0,false,0.0
18302,0.0,0.0,0.0,0.0,0.0,0.0,0.0,0.0,0.0,0.0,0.0,0.0,0,0,0,0.0,0.0,false,0.0
18302,0.0,0.0,0.0,0.0,0.0,0.0,0.0,0.0,0.0,0.0,0.0,0.0,0,0,0,0.0,0.0,false,0.0
18302,0.0,0.0,0.0,0.0,0.0,0.0,0.0,0.0,0.0,0.0,0.0,0.0,0,0,0,0.0,0.0,false,0.0
18302,0.0,0.0,0.0,0.0,0.0,0.0,0.0,0.0,0.0,0.0,0.0,0.0,0,0,0,0.0,0.0,false,0.0
18302,0.0,0.0,0.0,0.0,0.0,0.0,0.0,0.0,0.0,0.0,0.0,0.0,0,0,0,0.0,0.0,false,0.0
18302,0.0,0.0,0.0,0.0,0.0,0.0,0.0,0.0,0.0,0.0,0.0,0.0,0,0,0,0.0,0.0,false,0.0
18302,0.0,0.0,0.0,0.0,0.0,0.0,0.0,0.0,0.0,0.0,0.0,0.0,0,0,0,0.0,0.0,false,0.0
18302,0.0,0.0,0.0,0.0,0.0,0.0,0.0,0.0,0.0,0.0,0.0,0.0,0,0,0,0.0,0.0,false,0.0
18302,0.0,0.0,0.0,0.0,0.0,0.0,0.0,0.0,0.0,0.0,0.0,0.0,0,0,0,0.0,0.0,false,0.0
18302,0.0,0.0,0.0,0.0,0.0,0.0,0.0,0.0,0.0,0.0,0.0,0.0,0,0,0,0.0,0.0,false,0.0
18302,0.0,0.0,0.0,0.0,0.0,0.0,0.0,0.0,0.0,0.0,0.0,0.0,0,0,0,0.0,0.0,false,0.0
18302,0.0,0.0,0.0,0.0,0.0,0.0,0.0,0.0,0.0,0.0,0.0,0.0,0,0,0,0.0,0.0,false,0.0
18303,0.0,0.0,0.0,0.0,0.0,0.0,0.0,0.0,0.0,0.0,0.0,0.0,0,0,0,0.0,0.0,false,0.0
18303,0.0,0.0,0.0,0.0,0.0,0.0,0.0,0.0,0.0,0.0,0.0,0.0,0,0,0,0.0,0.0,false,0.0
18303,0.0,0.0,0.0,0.0,0.0,0.0,0.0,0.0,0.0,0.0,0.0,0.0,0,0,0,0.0,0.0,false,0.0
18303,0.0,0.0,0.0,0.0,0.0,0.0,0.0,0.0,0.0,0.0,0.0,0.0,0,0,0,0.0,0.0,false,0.0
18303,0.0,0.0,0.0,0.0,0.0,0.0,0.0,0.0,0.0,0.0,0.0,0.0,0,0,0,0.0,0.0,false,0.0
18303,0.0,0.0,0.0,0.0,0.0,0.0,0.0,0.0,0.0,0.0,0.0,0.0,0,0,0,0.0,0.0,false,0.0
18303,0.0,0.0,0.0,0.0,0.0,0.0,0.0,0.0,0.0,0.0,0.0,0.0,0,0,0,0.0,0.0,false,0.0
18303,0.0,0.0,0.0,0.0,0.0,0.0,0.0,0.0,0.0,0.0,0.0,0.0,0,0,0,0.0,0.0,false,0.0
18303,0.0,0.0,0.0,0.0,0.0,0.0,0.0,0.0,0.0,0.0,0.0,0.0,0,0,0,0.0,0.0,false,0.0
18303,0.0,0.0,0.0,0.0,0.0,0.0,0.0,0.0,0.0,0.0,0.0,0.0,0,0,0,0.0,0.0,false,0.0
18303,0.0,0.0,0.0,0.0,0.0,0.0,0.0,0.0,0.0,0.0,0.0,0.0,0,0,0,0.0,0.0,false,0.0
18303,0.0,0.0,0.0,0.0,0.0,0.0,0.0,0.0,0.0,0.0,0.0,0.0,0,0,0,0.0,0.0,false,0.0
18303,-0.0068359375,-0.022949219,-1.0317383,-0.007449576,0.018091828,0.13834926,187.8,36.0,-28.2,43.291176,-193.80473,0.0,1,0,0,3.9257648,3.0468452,false,0.0
18335,-0.0068359375,-0.022949219,-1.0317383,-0.007449576,0.018091828,0.13834926,187.8,36.0,-28.2,43.291176,-193.80473,0.0,1,0,0,3.9257648,3.0468452,false,0.0
18335,-0.0068359375,-0.022949219,-1.0317383,-0.007449576,0.018091828,0.13834926,187.8,36.0,-28.2,43.291176,-193.80473,0.0,1,0,0,3.9257648,3.0468452,false,0.0
18335,-0.0068359375,-0.022949219,-1.0317383,-0.007449576,0.018091828,0.13834926,187.8,36.0,-28.2,43.291176,-193.80473,0.0,1,0,0,3.9257648,3.0468452,false,0.0
18335,-0.0068359375,-0.022949219,-1.0317383,-0.007449576,0.018091828,0.13834926,187.8,36.0,-28.2,43.291176,-193.80473,0.0,1,0,0,3.9257648,3.0468452,false,0.0
18336,-0.0068359375,-0.022949219,-1.0317383,-0.007449576,0.018091828,0.13834926,187.8,36.0,-28.2,43.291176,-193.80473,0.0,1,0,0,3.9257648,3.0468452,false,0.0
18336,-0.0068359375,-0.022949219,-1.0317383,-0.007449576,0.018091828,0.13834926,187.8,36.0,-28.2,43.291176,-193.80473,0.0,1,0,0,3.9257648,3.0468452,false,0.0
18336,-0.0068359375,-0.022949219,-1.0317383,-0.007449576,0.018091828,0.13834926,187.8,36.0,-28.2,43.291176,-193.80473,0.0,1,0,0,3.9257648,3.0468452,false,0.0
18336,-0.0068359375,-0.022949219,-1.0317383,-0.007449576,0.018091828,0.13834926,187.8,36.0,-28.2,43.291176,-193.80473,0.0,1,0,0,3.9257648,3.0468452,false,0.0
18336,-0.0068359375,-0.022949219,-1.0317383,-0.007449576,0.018091828,0.13834926,187.8,36.0,-28.2,43.291176,-193.80473,0.0,1,0,0,3.9257648,3.0468452,false,0.0
18336,-0.0068359375,-0.022949219,-1.0317383,-0.007449576,0.018091828,0.13834926,187.8,36.0,-28.2,43.291176,-193.80473,0.0,1,0,0,3.9257648,3.0468452,false,0.0
18336,-0.0068359375,-0.022949219,-1.0317383,-0.007449576,0.018091828,0.13834926,187.8,36.0,-28.2,43.291176,-193.80473,0.0,1,0,0,3.9257648,3.0468452,false,0.0
18336,-0.0068359375,-0.022949219,-1.0317383,-0.007449576,0.018091828,0.13834926,187.8,36.0,-28.2,43.291176,-193.80473,0.0,1,0,0,3.9257648,3.0468452,false,0.0
18336,-0.0068359375,-0.022949219,-1.0317383,-0.007449576,0.018091828,0.13834926,187.8,36.0,-28.2,43.291176,-193.80473,0.0,1,0,0,3.9257648,3.0468452,false,0.0
18337,-0.0068359375,-0.022949219,-1.0317383,-0.007449576,0.018091828,0.13834926,187.8,36.0,-28.2,43.291176,-193.80473,0.0,1,0,0,3.9257648,3.0468452,false,0.0
18337,-0.0068359375,-0.022949219,-1.0317383,-0.007449576,0.018091828,0.13834926,187.8,36.0,-28.2,43.291176,-193.80473,0.0,1,0,0,3.9257648,3.0468452,false,0.0
18337,-0.0068359375,-0.022949219,-1.0317383,-0.007449576,0.018091828,0.13834926,187.8,36.0,-28.2,43.291176,-193.80473,0.0,1,0,0,3.9257648,3.0468452,false,0.0
18337,-0.0068359375,-0.022949219,-1.0317383,-0.007449576,0.018091828,0.13834926,187.8,36.0,-28.2,43.291176,-193.80473,0.0,1,0,0,3.9257648,3.0468452,false,0.0
18337,-0.0068359375,-0.022949219,-1.0317383,-0.007449576,0.018091828,0.13834926,187.8,36.0,-28.2,43.291176,-193.80473,0.0,1,0,0,3.9257648,3.0468452,false,0.0
18337,-0.0068359375,-0.022949219,-1.0317383,-0.007449576,0.018091828,0.13834926,187.8,36.0,-28.2,43.291176,-193.80473,0.0,1,0,0,3.9257648,3.0468452,false,0.0
18337,-0.0068359375,-0.022949219,-1.0317383,-0.007449576,0.018091828,0.13834926,187.8,36.0,-28.2,43.291176,-193.80473,0.0,1,0,0,3.9257648,3.0468452,false,0.0
18337,-0.0068359375,-0.022949219,-1.0317383,-0.007449576,0.018091828,0.13834926,187.8,36.0,-28.2,43.291176,-193.80473,0.0,1,0,0,3.9257648,3.0468452,false,0.0
18337,-0.0068359375,-0.022949219,-1.0317383,-0.007449576,0.018091828,0.13834926,187.8,36.0,-28.2,43.291176,-193.80473,0.0,1,0,0,3.9257648,3.0468452,false,0.0
18337,-0.0068359375,-0.022949219,-1.0317383,-0.007449576,0.018091828,0.13834926,187.8,36.0,-28.2,43.291176,-193.80473,0.0,1,0,0,3.9257648,3.0468452,false,0.0
18337,-0.0068359375,-0.022949219,-1.0317383,-0.007449576,0.018091828,0.13834926,187.8,36.0,-28.2,43.291176,-193.80473,0.0,1,0,0,3.9257648,3.0468452,false,0.0
18338,-0.0068359375,-0.022949219,-1.0317383,-0.007449576,0.018091828,0.13834926,187.8,36.0,-28.2,43.291176,-193.80473,0.0,1,0,0,3.9257648,3.0468452,false,0.0
18338,-0.0068359375,-0.022949219,-1.0317383,-0.007449576,0.018091828,0.13834926,187.8,36.0,-28.2,43.291176,-193.80473,0.0,1,0,0,3.9257648,3.0468452,false,0.0
18338,-0.0068359375,-0.022949219,-1.0317383,-0.007449576,0.018091828,0.13834926,187.8,36.0,-28.2,43.291176,-193.80473,0.0,1,0,0,3.9257648,3.0468452,false,0.0
18338,-0.0068359375,-0.022949219,-1.0317383,-0.007449576,0.018091828,0.13834926,187.8,36.0,-28.2,43.291176,-193.80473,0.0,1,0,0,3.9257648,3.0468452,false,0.0
18338,-0.0068359375,-0.022949219,-1.0317383,-0.007449576,0.018091828,0.13834926,187.8,36.0,-28.2,43.291176,-193.80473,0.0,1,0,0,3.9257648,3.0468452,false,0.0
18338,-0.0068359375,-0.022949219,-1.0317383,-0.007449576,0.018091828,0.13834926,187.8,36.0,-28.2,43.291176,-193.80473,0.0,1,0,0,3.9257648,3.0468452,false,0.0
18338,-0.0068359375,-0.022949219,-1.0317383,-0.007449576,0.018091828,0.13834926,187.8,36.0,-28.2,43.291176,-193.80473,0.0,1,0,0,3.9257648,3.0468452,false,0.0
18338,-0.0068359375,-0.022949219,-1.0317383,-0.007449576,0.018091828,0.13834926,187.8,36.0,-28.2,43.291176,-193.80473,0.0,1,0,0,3.9257648,3.0468452,false,0.0
18338,-0.0068359375,-0.022949219,-1.0317383,-0.007449576,0.018091828,0.13834926,187.8,36.0,-28.2,43.291176,-193.80473,0.0,1,0,0,3.9257648,3.0468452,false,0.0
18339,-0.0068359375,-0.022949219,-1.0317383,-0.007449576,0.018091828,0.13834926,187.8,36.0,-28.2,43.291176,-193.80473,0.0,1,0,0,3.9257648,3.0468452,false,0.0
18339,-0.0068359375,-0.022949219,-1.0317383,-0.007449576,0.018091828,0.13834926,187.8,36.0,-28.2,43.291176,-193.80473,0.0,1,0,0,3.9257648,3.0468452,false,0.0
18339,-0.0068359375,-0.022949219,-1.0317383,-0.007449576,0.018091828,0.13834926,187.8,36.0,-28.2,43.291176,-193.80473,0.0,1,0,0,3.9257648,3.0468452,false,0.0
18339,-0.0068359375,-0.022949219,-1.0317383,-0.007449576,0.018091828,0.13834926,187.8,36.0,-28.2,43.291176,-193.80473,0.0,1,0,0,3.9257648,3.0468452,false,0.0
18339,-0.0068359375,-0.022949219,-1.0317383,-0.007449576,0.018091828,0.13834926,187.8,36.0,-28.2,43.291176,-193.80473,0.0,1,0,0,3.9257648,3.0468452,false,0.0
18339,-0.0068359375,-0.022949219,-1.0317383,-0.007449576,0.018091828,0.13834926,187.8,36.0,-28.2,43.291176,-193.80473,0.0,1,0,0,3.9257648,3.0468452,false,0.0
18339,-0.0068359375,-0.022949219,-1.0317383,-0.007449576,0.018091828,0.13834926,187.8,36.0,-28.2,43.291176,-193.80473,0.0,1,0,0,3.9257648,3.0468452,false,0.0
18339,-0.0068359375,-0.022949219,-1.0317383,-0.007449576,0.018091828,0.13834926,187.8,36.0,-28.2,43.291176,-193.80473,0.0,1,0,0,3.9257648,3.0468452,false,0.0
18339,-0.0068359375,-0.022949219,-1.0317383,-0.007449576,0.018091828,0.13834926,187.8,36.0,-28.2,43.291176,-193.80473,0.0,1,0,0,3.9257648,3.0468452,false,0.0
18339,-0.0053710938,-0.024902344,-1.0405273,-0.009578027,0.019156054,0.13834926,189.90001,39.0,-24.0,43.3,-193.80473,0.0,1,0,0,3.9257648,3.0468452,false,0.0
18448,-0.0053710938,-0.024902344,-1.0405273,-0.009578027,0.019156054,0.13834926,189.90001,39.0,-24.0,43.3,-193.80473,0.0,1,0,0,3.9257648,3.0468452,false,0.0
18448,-0.0053710938,-0.024902344,-1.0405273,-0.009578027,0.019156054,0.13834926,189.90001,39.0,-24.0,43.3,-193.80473,0.0,1,0,0,3.9257648,3.0468452,false,0.0
18448,-0.0053710938,-0.024902344,-1.0405273,-0.009578027,0.019156054,0.13834926,189.90001,39.0,-24.0,43.3,-193.80473,0.0,1,0,0,3.9257648,3.0468452,false,0.0
18448,-0.0053710938,-0.024902344,-1.0405273,-0.009578027,0.019156054,0.13834926,189.90001,39.0,-24.0,43.3,-193.80473,0.0,1,0,0,3.9257648,3.0468452,false,0.0
18448,-0.0053710938,-0.024902344,-1.0405273,-0.009578027,0.019156054,0.13834926,189.90001,39.0,-24.0,43.3,-193.80473,0.0,1,0,0,3.9257648,3.0468452,false,0.0
18448,-0.0053710938,-0.024902344,-1.0405273,-0.009578027,0.019156054,0.13834926,189.90001,39.0,-24.0,43.3,-193.80473,0.0,1,0,0,3.9257648,3.0468452,false,0.0
18448,-0.0053710938,-0.024902344,-1.0405273,-0.009578027,0.019156054,0.13834926,189.90001,39.0,-24.0,43.3,-193.80473,0.0,1,0,0,3.9257648,3.0468452,false,0.0
18448,-0.0053710938,-0.024902344,-1.0405273,-0.009578027,0.019156054,0.13834926,189.90001,39.0,-24.0,43.3,-193.80473,0.0,1,0,0,3.9257648,3.0468452,false,0.0
18448,-0.0053710938,-0.024902344,-1.0405273,-0.009578027,0.019156054,0.13834926,189.90001,39.0,-24.0,43.3,-193.80473,0.0,1,0,0,3.9257648,3.0468452,false,0.0
18448,-0.0053710938,-0.024902344,-1.0405273,-0.009578027,0.019156054,0.13834926,189.90001,39.0,-24.0,43.3,-193.80473,0.0,1,0,0,3.9257648,3.0468452,false,0.0
18448,-0.0053710938,-0.024902344,-1.0405273,-0.009578027,0.019156054,0.13834926,189.90001,39.0,-24.0,43.3,-193.80473,0.0,1,0,0,3.9257648,3.0468452,false,0.0
18450,-0.0053710938,-0.024902344,-1.0405273,-0.009578027,0.019156054,0.13834926,189.90001,39.0,-24.0,43.3,-193.80473,0.0,1,0,0,3.9257648,3.0468452,false,0.0
18450,-0.0053710938,-0.024902344,-1.0405273,-0.009578027,0.019156054,0.13834926,189.90001,39.0,-24.0,43.3,-193.80473,0.0,1,0,0,3.9257648,3.0468452,false,0.0
18451,-0.0053710938,-0.024902344,-1.0405273,-0.009578027,0.019156054,0.13834926,189.90001,39.0,-24.0,43.3,-193.80473,0.0,1,0,0,3.9257648,3.0468452,false,0.0
18451,-0.0053710938,-0.024902344,-1.0405273,-0.009578027,0.019156054,0.13834926,189.90001,39.0,-24.0,43.3,-193.80473,0.0,1,0,0,3.9257648,3.0468452,false,0.0
18451,-0.0053710938,-0.024902344,-1.0405273,-0.009578027,0.019156054,0.13834926,189.90001,39.0,-24.0,43.3,-193.80473,0.0,1,0,0,3.9257648,3.0468452,false,0.0
18451,-0.0053710938,-0.024902344,-1.0405273,-0.009578027,0.019156054,0.13834926,189.90001,39.0,-24.0,43.3,-193.80473,0.0,1,0,0,3.9257648,3.0468452,false,0.0
18451,-0.0053710938,-0.024902344,-1.0405273,-0.009578027,0.019156054,0.13834926,189.90001,39.0,-24.0,43.3,-193.80473,0.0,1,0,0,3.9257648,3.0468452,false,0.0
18451,-0.0053710938,-0.024902344,-1.0405273,-0.009578027,0.019156054,0.13834926,189.90001,39.0,-24.0,43.3,-193.80473,0.0,1,0,0,3.9257648,3.0468452,false,0.0
18451,-0.0053710938,-0.024902344,-1.0405273,-0.009578027,0.019156054,0.13834926,189.90001,39.0,-24.0,43.3,-193.80473,0.0,1,0,0,3.9257648,3.0468452,false,0.0
18451,-0.0053710938,-0.024902344,-1.0405273,-0.009578027,0.019156054,0.13834926,189.90001,39.0,-24.0,43.3,-193.80473,0.0,1,0,0,3.9257648,3.0468452,false,0.0
18451,-0.0053710938,-0.024902344,-1.0405273,-0.009578027,0.019156054,0.13834926,189.90001,39.0,-24.0,43.3,-193.80473,0.0,1,0,0,3.9257648,3.0468452,false,0.0
18451,-0.0053710938,-0.024902344,-1.0405273,-0.009578027,0.019156054,0.13834926,189.90001,39.0,-24.0,43.3,-193.80473,0.0,1,0,0,3.9257648,3.0468452,false,0.0
18451,-0.0053710938,-0.024902344,-1.0405273,-0.009578027,0.019156054,0.13834926,189.90001,39.0,-24.0,43.3,-193.80473,0.0,1,0,0,3.9257648,3.0468452,false,0.0
18451,-0.0053710938,-0.024902344,-1.0405273,-0.009578027,0.019156054,0.13834926,189.90001,39.0,-24.0,43.3,-193.80473,0.0,1,0,0,3.9257648,3.0468452,false,0.0
18451,-0.0053710938,-0.024902344,-1.0405273,-0.009578027,0.019156054,0.13834926,189.90001,39.0,-24.0,43.3,-193.80473,0.0,1,0,0,3.9257648,3.0468452,false,0.0
18451,-0.0053710938,-0.024902344,-1.0405273,-0.009578027,0.019156054,0.13834926,189.90001,39.0,-24.0,43.3,-193.80473,0.0,1,0,0,3.9257648,3.0468452,false,0.0
18451,-0.0053710938,-0.024902344,-1.0405273,-0.009578027,0.019156054,0.13834926,189.90001,39.0,-24.0,43.3,-193.80473,0.0,1,0,0,3.9257648,3.0468452,false,0.0
18451,-0.0053710938,-0.024902344,-1.0405273,-0.009578027,0.019156054,0.13834926,189.90001,39.0,-24.0,43.3,-193.80473,0.0,1,0,0,3.9257648,3.0468452,false,0.0
18451,-0.0053710938,-0.024902344,-1.0405273,-0.009578027,0.019156054,0.13834926,189.90001,39.0,-24.0,43.3,-193.80473,0.0,1,0,0,3.9257648,3.0468452,false,0.0
18451,-0.0053710938,-0.024902344,-1.0405273,-0.009578027,0.019156054,0.13834926,189.90001,39.0,-24.0,43.3,-193.80473,0.0,1,0,0,3.9257648,3.0468452,false,0.0
18451,-0.0053710938,-0.024902344,-1.0405273,-0.009578027,0.019156054,0.13834926,189.90001,39.0,-24.0,43.3,-193.80473,0.0,1,0,0,3.9257648,3.0468452,false,0.0
18451,-0.0053710938,-0.024902344,-1.0405273,-0.009578027,0.019156054,0.13834926,189.90001,39.0,-24.0,43.3,-193.80473,0.0,1,0,0,3.9257648,3.0468452,false,0.0
18451,-0.0053710938,-0.024902344,-1.0405273,-0.009578027,0.019156054,0.13834926,189.90001,39.0,-24.0,43.3,-193.80473,0.0,1,0,0,3.9257648,3.0468452,false,0.0
18452,-0.0053710938,-0.024902344,-1.0405273,-0.009578027,0.019156054,0.13834926,189.90001,39.0,-24.0,43.3,-193.80473,0.0,1,0,0,3.9257648,3.0468452,false,0.0
18452,-0.0053710938,-0.024902344,-1.0405273,-0.009578027,0.019156054,0.13834926,189.90001,39.0,-24.0,43.3,-193.80473,0.0,1,0,0,3.9257648,3.0468452,false,0.0
18452,-0.0053710938,-0.024902344,-1.0405273,-0.009578027,0.019156054,0.13834926,189.90001,39.0,-24.0,43.3,-193.80473,0.0,1,0,0,3.9257648,3.0468452,false,0.0
18452,-0.0053710938,-0.024902344,-1.0405273,-0.009578027,0.019156054,0.13834926,189.90001,39.0,-24.0,43.3,-193.80473,0.0,1,0,0,3.9257648,3.0468452,false,0.0
18452,-0.0053710938,-0.024902344,-1.0405273,-0.009578027,0.019156054,0.13834926,189.90001,39.0,-24.0,43.3,-193.80473,0.0,1,0,0,3.9257648,3.0468452,false,0.0
18452,-0.0053710938,-0.024902344,-1.0405273,-0.009578027,0.019156054,0.13834926,189.90001,39.0,-24.0,43.3,-193.80473,0.0,1,0,0,3.9257648,3.0468452,false,0.0
18452,-0.0053710938,-0.024902344,-1.0405273,-0.009578027,0.019156054,0.13834926,189.90001,39.0,-24.0,43.3,-193.80473,0.0,1,0,0,3.9257648,3.0468452,false,0.0
18452,-0.0053710938,-0.024902344,-1.0405273,-0.009578027,0.019156054,0.13834926,189.90001,39.0,-24.0,43.3,-193.80473,0.0,1,0,0,3.9257648,3.0468452,false,0.0
18452,-0.005859375,-0.020507812,-1.034668,-0.009578027,0.019156054,0.13941349,187.20001,37.2,-27.000002,43.30294,-193.80473,0.0,1,0,0,3.9140153,3.0409706,false,0.0
18452,-0.005859375,-0.020507812,-1.034668,-0.009578027,0.019156054,0.13941349,187.20001,37.2,-27.000002,43.30294,-193.80473,0.0,1,0,0,3.9140153,3.0409706,false,0.0
18452,-0.005859375,-0.020507812,-1.034668,-0.009578027,0.019156054,0.13941349,187.20001,37.2,-27.000002,43.30294,-193.80473,0.0,1,0,0,3.9140153,3.0409706,false,0.0
18452,-0.005859375,-0.020507812,-1.034668,-0.009578027,0.019156054,0.13941349,187.20001,37.2,-27.000002,43.30294,-193.80473,0.0,1,0,0,3.9140153,3.0409706,false,0.0
18452,-0.005859375,-0.020507812,-1.034668,-0.009578027,0.019156054,0.13941349,187.20001,37.2,-27.000002,43.30294,-193.80473,0.0,1,0,0,3.9140153,3.0409706,false,0.0
18452,-0.005859375,-0.020507812,-1.034668,-0.009578027,0.019156054,0.13941349,187.20001,37.2,-27.000002,43.30294,-193.80473,0.0,1,0,0,3.9140153,3.0409706,false,0.0
18452,-0.005859375,-0.020507812,-1.034668,-0.009578027,0.019156054,0.13941349,187.20001,37.2,-27.000002,43.30294,-193.80473,0.0,1,0,0,3.9140153,3.0409706,false,0.0
18452,-0.005859375,-0.020507812,-1.034668,-0.009578027,0.019156054,0.13941349,187.20001,37.2,-27.000002,43.30294,-193.80473,0.0,1,0,0,3.9140153,3.0409706,false,0.0
18452,-0.005859375,-0.020507812,-1.034668,-0.009578027,0.019156054,0.13941349,187.20001,37.2,-27.000002,43.30294,-193.80473,0.0,1,0,0,3.9140153,3.0409706,false,0.0
18452,-0.005859375,-0.020507812,-1.034668,-0.009578027,0.019156054,0.13941349,187.20001,37.2,-27.000002,43.30294,-193.80473,0.0,1,0,0,3.9140153,3.0409706,false,0.0
18452,-0.005859375,-0.020507812,-1.034668,-0.009578027,0.019156054,0.13941349,187.20001,37.2,-27.000002,43.30294,-193.80473,0.0,1,0,0,3.9140153,3.0409706,false,0.0
18452,-0.005859375,-0.020507812,-1.034668,-0.009578027,0.019156054,0.13941349,187.20001,37.2,-27.000002,43.30294,-193.80473,0.0,1,0,0,3.9140153,3.0409706,false,0.0
18452,-0.005859375,-0.020507812,-1.034668,-0.009578027,0.019156054,0.13941349,187.20001,37.2,-27.000002,43.30294,-193.80473,0.0,1,0,0,3.9140153,3.0409706,false,0.0
18452,-0.005859375,-0.020507812,-1.034668,-0.009578027,0.019156054,0.13941349,187.20001,37.2,-27.000002,43.30294,-193.80473,0.0,1,0,0,3.9140153,3.0409706,false,0.0
18452,-0.005859375,-0.020507812,-1.034668,-0.009578027,0.019156054,0.13941349,187.20001,37.2,-27.000002,43.30294,-193.80473,0.0,1,0,0,3.9140153,3.0409706,false,0.0
18452,-0.005859375,-0.020507812,-1.034668,-0.009578027,0.019156054,0.13941349,187.20001,37.2,-27.000002,43.30294,-193.80473,0.0,1,0,0,3.9140153,3.0409706,false,0.0
18452,-0.005859375,-0.020507812,-1.034668,-0.009578027,0.019156054,0.13941349,187.20001,37.2,-27.000002,43.30294,-193.80473,0.0,1,0,0,3.9140153,3.0409706,false,0.0
18452,-0.005859375,-0.020507812,-1.034668,-0.009578027,0.019156054,0.13941349,187.20001,37.2,-27.000002,43.30294,-193.80473,0.0,1,0,0,3.9140153,3.0409706,false,0.0
18452,-0.005859375,-0.020507812,-1.034668,-0.009578027,0.019156054,0.13941349,187.20001,37.2,-27.000002,43.30294,-193.80473,0.0,1,0,0,3.9140153,3.0409706,false,0.0
18452,-0.005859375,-0.020507812,-1.034668,-0.009578027,0.019156054,0.13941349,187.20001,37.2,-27.000002,43.30294,-193.80473,0.0,1,0,0,3.9140153,3.0409706,false,0.0
18452,-0.005859375,-0.020507812,-1.034668,-0.009578027,0.019156054,0.13941349,187.20001,37.2,-27.000002,43.30294,-193.80473,0.0,1,0,0,3.9140153,3.0409706,false,0.0
18452,-0.005859375,-0.020507812,-1.034668,-0.009578027,0.019156054,0.13941349,187.20001,37.2,-27.000002,43.30294,-193.80473,0.0,1,0,0,3.9140153,3.0409706,false,0.0
18453,-0.005859375,-0.020507812,-1.034668,-0.009578027,0.019156054,0.13941349,187.20001,37.2,-27.000002,43.30294,-193.80473,0.0,1,0,0,3.9140153,3.0409706,false,0.0
18453,-0.005859375,-0.020507812,-1.034668,-0.009578027,0.019156054,0.13941349,187.20001,37.2,-27.000002,43.30294,-193.80473,0.0,1,0,0,3.9140153,3.0409706,false,0.0
18453,-0.005859375,-0.020507812,-1.034668,-0.009578027,0.019156054,0.13941349,187.20001,37.2,-27.000002,43.30294,-193.80473,0.0,1,0,0,3.9140153,3.0409706,false,0.0
18453,-0.005859375,-0.020507812,-1.034668,-0.009578027,0.019156054,0.13941349,187.20001,37.2,-27.000002,43.30294,-193.80473,0.0,1,0,0,3.9140153,3.0409706,false,0.0
18453,-0.005859375,-0.020507812,-1.034668,-0.009578027,0.019156054,0.13941349,187.20001,37.2,-27.000002,43.30294,-193.80473,0.0,1,0,0,3.9140153,3.0409706,false,0.0
18453,-0.005859375,-0.020507812,-1.034668,-0.009578027,0.019156054,0.13941349,187.20001,37.2,-27.000002,43.30294,-193.80473,0.0,1,0,0,3.9140153,3.0409706,false,0.0
18453,-0.005859375,-0.020507812,-1.034668,-0.009578027,0.019156054,0.13941349,187.20001,37.2,-27.000002,43.30294,-193.80473,0.0,1,0,0,3.9140153,3.0409706,false,0.0
18453,-0.005859375,-0.020507812,-1.034668,-0.009578027,0.019156054,0.13941349,187.20001,37.2,-27.000002,43.30294,-193.80473,0.0,1,0,0,3.9140153,3.0409706,false,0.0
18453,-0.005859375,-0.020507812,-1.034668,-0.009578027,0.019156054,0.13941349,187.20001,37.2,-27.000002,43.30294,-193.80473,0.0,1,0,0,3.9140153,3.0409706,false,0.0
18453,-0.005859375,-0.020507812,-1.034668,-0.009578027,0.019156054,0.13941349,187.20001,37.2,-27.000002,43.30294,-193.80473,0.0,1,0,0,3.9140153,3.0409706,false,0.0
18453,-0.005859375,-0.020507812,-1.034668,-0.009578027,0.019156054,0.13941349,187.20001,37.2,-27.000002,43.30294,-193.80473,0.0,1,0,0,3.9140153,3.0409706,false,0.0
18453,-0.005859375,-0.020507812,-1.034668,-0.009578027,0.019156054,0.13941349,187.20001,37.2,-27.000002,43.30294,-193.80473,0.0,1,0,0,3.9140153,3.0409706,false,0.0
18453,-0.005859375,-0.020507812,-1.034668,-0.009578027,0.019156054,0.13941349,187.20001,37.2,-27.000002,43.30294,-193.80473,0.0,1,0,0,3.9140153,3.0409706,false,0.0
18453,-0.005859375,-0.020507812,-1.034668,-0.009578027,0.019156054,0.13941349,187.20001,37.2,-27.000002,43.30294,-193.80473,0.0,1,0,0,3.9140153,3.0409706,false,0.0
18453,-0.005859375,-0.020507812,-1.034668,-0.009578027,0.019156054,0.13941349,187.20001,37.2,-27.000002,43.30294,-193.80473,0.0,1,0,0,3.9140153,3.0409706,false,0.0
18453,-0.005859375,-0.020507812,-1.034668,-0.009578027,0.019156054,0.13941349,187.20001,37.2,-27.000002,43.30294,-193.80473,0.0,1,0,0,3.9140153,3.0409706,false,0.0
18453,-0.005859375,-0.020507812,-1.034668,-0.009578027,0.019156054,0.13941349,187.20001,37.2,-27.000002,43.30294,-193.80473,0.0,1,0,0,3.9140153,3.0409706,false,0.0
18453,-0.005859375,-0.020507812,-1.034668,-0.009578027,0.019156054,0.13941349,187.20001,37.2,-27.000002,43.30294,-193.80473,0.0,1,0,0,3.9140153,3.0409706,false,0.0
18453,-0.005859375,-0.020507812,-1.034668,-0.009578027,0.019156054,0.13941349,187.20001,37.2,-27.000002,43.30294,-193.80473,0.0,1,0,0,3.9140153,3.0409706,false,0.0
18453,-0.005859375,-0.020507812,-1.034668,-0.009578027,0.019156054,0.13941349,187.20001,37.2,-27.000002,43.30294,-193.80473,0.0,1,0,0,3.9140153,3.0409706,false,0.0
18453,-0.005859375,-0.020507812,-1.034668,-0.009578027,0.019156054,0.13941349,187.20001,37.2,-27.000002,43.30294,-193.80473,0.0,1,0,0,3.9140153,3.0409706,false,0.0
18453,-0.0053710938,-0.025390625,-1.0327148,-0.006385351,0.020220278,0.13834926,190.8,36.600002,-26.400002,43.25294,-193.80473,0.0,1,0,0,3.9257648,3.0468452,false,0.0
18516,-0.0053710938,-0.025390625,-1.0327148,-0.006385351,0.020220278,0.13834926,190.8,36.600002,-26.400002,43.25294,-193.80473,0.0,1,0,0,3.9257648,3.0468452,false,0.0
18517,-0.0053710938,-0.025390625,-1.0327148,-0.006385351,0.020220278,0.13834926,190.8,36.600002,-26.400002,43.25294,-193.80473,0.0,1,0,0,3.9257648,3.0468452,false,0.0
18517,-0.0053710938,-0.025390625,-1.0327148,-0.006385351,0.020220278,0.13834926,190.8,36.600002,-26.400002,43.25294,-193.80473,0.0,1,0,0,3.9257648,3.0468452,false,0.0
18517,-0.0053710938,-0.025390625,-1.0327148,-0.006385351,0.020220278,0.13834926,190.8,36.600002,-26.400002,43.25294,-193.80473,0.0,1,0,0,3.9257648,3.0468452,false,0.0
18517,-0.0053710938,-0.025390625,-1.0327148,-0.006385351,0.020220278,0.13834926,190.8,36.600002,-26.400002,43.25294,-193.80473,0.0,1,0,0,3.9257648,3.0468452,false,0.0
18517,-0.0053710938,-0.025390625,-1.0327148,-0.006385351,0.020220278,0.13834926,190.8,36.600002,-26.400002,43.25294,-193.80473,0.0,1,0,0,3.9257648,3.0468452,false,0.0
18517,-0.0053710938,-0.025390625,-1.0327148,-0.006385351,0.020220278,0.13834926,190.8,36.600002,-26.400002,43.25294,-193.80473,0.0,1,0,0,3.9257648,3.0468452,false,0.0
18517,-0.0053710938,-0.025390625,-1.0327148,-0.006385351,0.020220278,0.13834926,190.8,36.600002,-26.400002,43.25294,-193.80473,0.0,1,0,0,3.9257648,3.0468452,false,0.0
18517,-0.0053710938,-0.025390625,-1.0327148,-0.006385351,0.020220278,0.13834926,190.8,36.600002,-26.400002,43.25294,-193.80473,0.0,1,0,0,3.9257648,3.0468452,false,0.0
18517,-0.0053710938,-0.025390625,-1.0327148,-0.006385351,0.020220278,0.13834926,190.8,36.600002,-26.400002,43.25294,-193.80473,0.0,1,0,0,3.9257648,3.0468452,false,0.0
18517,-0.0053710938,-0.025390625,-1.0327148,-0.006385351,0.020220278,0.13834926,190.8,36.600002,-26.400002,43.25294,-193.80473,0.0,1,0,0,3.9257648,3.0468452,false,0.0
18517,-0.0053710938,-0.025390625,-1.0327148,-0.006385351,0.020220278,0.13834926,190.8,36.600002,-26.400002,43.25294,-193.80473,0.0,1,0,0,3.9257648,3.0468452,false,0.0
18517,-0.0053710938,-0.025390625,-1.0327148,-0.006385351,0.020220278,0.13834926,190.8,36.600002,-26.400002,43.25294,-193.80473,0.0,1,0,0,3.9257648,3.0468452,false,0.0
18518,-0.0053710938,-0.025390625,-1.0327148,-0.006385351,0.020220278,0.13834926,190.8,36.600002,-26.400002,43.25294,-193.80473,0.0,1,0,0,3.9257648,3.0468452,false,0.0
18518,-0.0053710938,-0.025390625,-1.0327148,-0.006385351,0.020220278,0.13834926,190.8,36.600002,-26.400002,43.25294,-193.80473,0.0,1,0,0,3.9257648,3.0468452,false,0.0
18518,-0.0053710938,-0.025390625,-1.0327148,-0.006385351,0.020220278,0.13834926,190.8,36.600002,-26.400002,43.25294,-193.80473,0.0,1,0,0,3.9257648,3.0468452,false,0.0
18518,-0.0053710938,-0.025390625,-1.0327148,-0.006385351,0.020220278,0.13834926,190.8,36.600002,-26.400002,43.25294,-193.80473,0.0,1,0,0,3.9257648,3.0468452,false,0.0
18518,-0.0053710938,-0.025390625,-1.0327148,-0.006385351,0.020220278,0.13834926,190.8,36.600002,-26.400002,43.25294,-193.80473,0.0,1,0,0,3.9257648,3.0468452,false,0.0
18518,-0.0053710938,-0.025390625,-1.0327148,-0.006385351,0.020220278,0.13834926,190.8,36.600002,-26.400002,43.25294,-193.80473,0.0,1,0,0,3.9257648,3.0468452,false,0.0
18518,-0.0053710938,-0.025390625,-1.0327148,-0.006385351,0.020220278,0.13834926,190.8,36.600002,-26.400002,43.25294,-193.80473,0.0,1,0,0,3.9257648,3.0468452,false,0.0
18518,-0.0053710938,-0.025390625,-1.0327148,-0.006385351,0.020220278,0.13834926,190.8,36.600002,-26.400002,43.25294,-193.80473,0.0,1,0,0,3.9257648,3.0468452,false,0.0
18518,-0.0053710938,-0.025390625,-1.0327148,-0.006385351,0.020220278,0.13834926,190.8,36.600002,-26.400002,43.25294,-193.80473,0.0,1,0,0,3.9257648,3.0468452,false,0.0
18518,-0.0053710938,-0.025390625,-1.0327148,-0.006385351,0.020220278,0.13834926,190.8,36.600002,-26.400002,43.25294,-193.80473,0.0,1,0,0,3.9257648,3.0468452,false,0.0
18518,-0.0053710938,-0.025390625,-1.0327148,-0.006385351,0.020220278,0.13834926,190.8,36.600002,-26.400002,43.25294,-193.80473,0.0,1,0,0,3.9257648,3.0468452,false,0.0
18518,-0.0053710938,-0.025390625,-1.0327148,-0.006385351,0.020220278,0.13834926,190.8,36.600002,-26.400002,43.25294,-193.80473,0.0,1,0,0,3.9257648,3.0468452,false,0.0
18518,-0.0053710938,-0.025390625,-1.0327148,-0.006385351,0.020220278,0.13834926,190.8,36.600002,-26.400002,43.25294,-193.80473,0.0,1,0,0,3.9257648,3.0468452,false,0.0
18518,-0.0053710938,-0.025390625,-1.0327148,-0.006385351,0.020220278,0.13834926,190.8,36.600002,-26.400002,43.25294,-193.80473,0.0,1,0,0,3.9257648,3.0468452,false,0.0
18518,-0.0053710938,-0.025390625,-1.0327148,-0.006385351,0.020220278,0.13834926,190.8,36.600002,-26.400002,43.25294,-193.80473,0.0,1,0,0,3.9257648,3.0468452,false,0.0
18518,-0.0053710938,-0.025390625,-1.0327148,-0.006385351,0.020220278,0.13834926,190.8,36.600002,-26.400002,43.25294,-193.80473,0.0,1,0,0,3.9257648,3.0468452,false,0.0
18518,-0.0053710938,-0.025390625,-1.0327148,-0.006385351,0.020220278,0.13834926,190.8,36.600002,-26.400002,43.25294,-193.80473,0.0,1,0,0,3.9257648,3.0468452,false,0.0
18518,-0.0053710938,-0.025390625,-1.0327148,-0.006385351,0.020220278,0.13834926,190.8,36.600002,-26.400002,43.25294,-193.80473,0.0,1,0,0,3.9257648,3.0468452,false,0.0
18518,-0.0053710938,-0.025390625,-1.0327148,-0.006385351,0.020220278,0.13834926,190.8,36.600002,-26.400002,43.25294,-193.80473,0.0,1,0,0,3.9257648,3.0468452,false,0.0
18518,-0.0053710938,-0.025390625,-1.0327148,-0.006385351,0.020220278,0.13834926,190.8,36.600002,-26.400002,43.25294,-193.80473,0.0,1,0,0,3.9257648,3.0468452,false,0.0
18518,-0.0053710938,-0.025390625,-1.0327148,-0.006385351,0.020220278,0.13834926,190.8,36.600002,-26.400002,43.25294,-193.80473,0.0,1,0,0,3.9257648,3.0468452,false,0.0
18518,-0.0053710938,-0.025390625,-1.0327148,-0.006385351,0.020220278,0.13834926,190.8,36.600002,-26.400002,43.25294,-193.80473,0.0,1,0,0,3.9257648,3.0468452,false,0.0
18518,-0.0053710938,-0.025390625,-1.0327148,-0.006385351,0.020220278,0.13834926,190.8,36.600002,-26.400002,43.25294,-193.80473,0.0,1,0,0,3.9257648,3.0468452,false,0.0
18518,-0.0053710938,-0.025390625,-1.0327148,-0.006385351,0.020220278,0.13834926,190.8,36.600002,-26.400002,43.25294,-193.80473,0.0,1,0,0,3.9257648,3.0468452,false,0.0
18518,-0.0053710938,-0.025390625,-1.0327148,-0.006385351,0.020220278,0.13834926,190.8,36.600002,-26.400002,43.25294,-193.80473,0.0,1,0,0,3.9257648,3.0468452,false,0.0
18518,-0.0053710938,-0.025390625,-1.0327148,-0.006385351,0.020220278,0.13834926,190.8,36.600002,-26.400002,43.25294,-193.80473,0.0,1,0,0,3.9257648,3.0468452,false,0.0
18518,-0.0053710938,-0.025390625,-1.0327148,-0.006385351,0.020220278,0.13834926,190.8,36.600002,-26.400002,43.25294,-193.80473,0.0,1,0,0,3.9257648,3.0468452,false,0.0
18518,-0.0053710938,-0.025390625,-1.0327148,-0.006385351,0.020220278,0.13834926,190.8,36.600002,-26.400002,43.25294,-193.80473,0.0,1,0,0,3.9257648,3.0468452,false,0.0
18518,-0.0053710938,-0.025390625,-1.0327148,-0.006385351,0.020220278,0.13834926,190.8,36.600002,-26.400002,43.25294,-193.80473,0.0,1,0,0,3.9257648,3.0468452,false,0.0
18518,-0.005859375,-0.022949219,-1.034668,-0.009578027,0.018091828,0.13834926,193.50002,34.800003,-27.6,43.32647,-193.80473,0.0,1,0,0,3.9257648,3.0468452,false,0.0
18575,-0.005859375,-0.022949219,-1.034668,-0.009578027,0.018091828,0.13834926,193.50002,34.800003,-27.6,43.32647,-193.80473,0.0,1,0,0,3.9257648,3.0468452,false,0.0
18575,-0.005859375,-0.022949219,-1.034668,-0.009578027,0.018091828,0.13834926,193.50002,34.800003,-27.6,43.32647,-193.80473,0.0,1,0,0,3.9257648,3.0468452,false,0.0
18576,-0.005859375,-0.022949219,-1.034668,-0.009578027,0.018091828,0.13834926,193.50002,34.800003,-27.6,43.32647,-193.80473,0.0,1,0,0,3.9257648,3.0468452,false,0.0
18576,-0.005859375,-0.022949219,-1.034668,-0.009578027,0.018091828,0.13834926,193.50002,34.800003,-27.6,43.32647,-193.80473,0.0,1,0,0,3.9257648,3.0468452,false,0.0
18576,-0.005859375,-0.022949219,-1.034668,-0.009578027,0.018091828,0.13834926,193.50002,34.800003,-27.6,43.32647,-193.80473,0.0,1,0,0,3.9257648,3.0468452,false,0.0
18576,-0.005859375,-0.022949219,-1.034668,-0.009578027,0.018091828,0.13834926,193.50002,34.800003,-27.6,43.32647,-193.80473,0.0,1,0,0,3.9257648,3.0468452,false,0.0
18578,-0.005859375,-0.022949219,-1.034668,-0.009578027,0.018091828,0.13834926,193.50002,34.800003,-27.6,43.32647,-193.80473,0.0,1,0,0,3.9257648,3.0468452,false,0.0
18578,-0.005859375,-0.022949219,-1.034668,-0.009578027,0.018091828,0.13834926,193.50002,34.800003,-27.6,43.32647,-193.80473,0.0,1,0,0,3.9257648,3.0468452,false,0.0
18578,-0.005859375,-0.022949219,-1.034668,-0.009578027,0.018091828,0.13834926,193.50002,34.800003,-27.6,43.32647,-193.80473,0.0,1,0,0,3.9257648,3.0468452,false,0.0
18578,-0.005859375,-0.022949219,-1.034668,-0.009578027,0.018091828,0.13834926,193.50002,34.800003,-27.6,43.32647,-193.80473,0.0,1,0,0,3.9257648,3.0468452,false,0.0
18579,-0.005859375,-0.022949219,-1.034668,-0.009578027,0.018091828,0.13834926,193.50002,34.800003,-27.6,43.32647,-193.80473,0.0,1,0,0,3.9257648,3.0468452,false,0.0
18579,-0.005859375,-0.022949219,-1.034668,-0.009578027,0.018091828,0.13834926,193.50002,34.800003,-27.6,43.32647,-193.80473,0.0,1,0,0,3.9257648,3.0468452,false,0.0
18579,-0.005859375,-0.022949219,-1.034668,-0.009578027,0.018091828,0.13834926,193.50002,34.800003,-27.6,43.32647,-193.80473,0.0,1,0,0,3.9257648,3.0468452,false,0.0
18579,-0.005859375,-0.022949219,-1.034668,-0.009578027,0.018091828,0.13834926,193.50002,34.800003,-27.6,43.32647,-193.80473,0.0,1,0,0,3.9257648,3.0468452,false,0.0
18579,-0.005859375,-0.022949219,-1.034668,-0.009578027,0.018091828,0.13834926,193.50002,34.800003,-27.6,43.32647,-193.80473,0.0,1,0,0,3.9257648,3.0468452,false,0.0
18579,-0.005859375,-0.022949219,-1.034668,-0.009578027,0.018091828,0.13834926,193.50002,34.800003,-27.6,43.32647,-193.80473,0.0,1,0,0,3.9257648,3.0468452,false,0.0
18579,-0.005859375,-0.022949219,-1.034668,-0.009578027,0.018091828,0.13834926,193.50002,34.800003,-27.6,43.32647,-193.80473,0.0,1,0,0,3.9257648,3.0468452,false,0.0
18579,-0.005859375,-0.022949219,-1.034668,-0.009578027,0.018091828,0.13834926,193.50002,34.800003,-27.6,43.32647,-193.80473,0.0,1,0,0,3.9257648,3.0468452,false,0.0
18579,-0.005859375,-0.022949219,-1.034668,-0.009578027,0.018091828,0.13834926,193.50002,34.800003,-27.6,43.32647,-193.80473,0.0,1,0,0,3.9257648,3.0468452,false,0.0
18579,-0.005859375,-0.022949219,-1.034668,-0.009578027,0.018091828,0.13834926,193.50002,34.800003,-27.6,43.32647,-193.80473,0.0,1,0,0,3.9257648,3.0468452,false,0.0
18579,-0.005859375,-0.022949219,-1.034668,-0.009578027,0.018091828,0.13834926,193.50002,34.800003,-27.6,43.32647,-193.80473,0.0,1,0,0,3.9257648,3.0468452,false,0.0
18579,-0.005859375,-0.022949219,-1.034668,-0.009578027,0.018091828,0.13834926,193.50002,34.800003,-27.6,43.32647,-193.80473,0.0,1,0,0,3.9257648,3.0468452,false,0.0
18579,-0.005859375,-0.022949219,-1.034668,-0.009578027,0.018091828,0.13834926,193.50002,34.800003,-27.6,43.32647,-193.80473,0.0,1,0,0,3.9257648,3.0468452,false,0.0
18579,-0.005859375,-0.022949219,-1.034668,-0.009578027,0.018091828,0.13834926,193.50002,34.800003,-27.6,43.32647,-193.80473,0.0,1,0,0,3.9257648,3.0468452,false,0.0
18579,-0.005859375,-0.022949219,-1.034668,-0.009578027,0.018091828,0.13834926,193.50002,34.800003,-27.6,43.32647,-193.80473,0.0,1,0,0,3.9257648,3.0468452,false,0.0
18579,-0.005859375,-0.022949219,-1.034668,-0.009578027,0.018091828,0.13834926,193.50002,34.800003,-27.6,43.32647,-193.80473,0.0,1,0,0,3.9257648,3.0468452,false,0.0
18579,-0.005859375,-0.022949219,-1.034668,-0.009578027,0.018091828,0.13834926,193.50002,34.800003,-27.6,43.32647,-193.80473,0.0,1,0,0,3.9257648,3.0468452,false,0.0
18579,-0.005859375,-0.022949219,-1.034668,-0.009578027,0.018091828,0.13834926,193.50002,34.800003,-27.6,43.32647,-193.80473,0.0,1,0,0,3.9257648,3.0468452,false,0.0
18579,-0.005859375,-0.022949219,-1.034668,-0.009578027,0.018091828,0.13834926,193.50002,34.800003,-27.6,43.32647,-193.80473,0.0,1,0,0,3.9257648,3.0468452,false,0.0
18579,-0.005859375,-0.022949219,-1.034668,-0.009578027,0.018091828,0.13834926,193.50002,34.800003,-27.6,43.32647,-193.80473,0.0,1,0,0,3.9257648,3.0468452,false,0.0
18579,-0.005859375,-0.022949219,-1.034668,-0.009578027,0.018091828,0.13834926,193.50002,34.800003,-27.6,43.32647,-193.80473,0.0,1,0,0,3.9257648,3.0468452,false,0.0
18579,-0.005859375,-0.022949219,-1.034668,-0.009578027,0.018091828,0.13834926,193.50002,34.800003,-27.6,43.32647,-193.80473,0.0,1,0,0,3.9257648,3.0468452,false,0.0
18579,-0.005859375,-0.022949219,-1.034668,-0.009578027,0.018091828,0.13834926,193.50002,34.800003,-27.6,43.32647,-193.80473,0.0,1,0,0,3.9257648,3.0468452,false,0.0
18579,-0.005859375,-0.022949219,-1.034668,-0.009578027,0.018091828,0.13834926,193.50002,34.800003,-27.6,43.32647,-193.80473,0.0,1,0,0,3.9257648,3.0468452,false,0.0
18579,-0.005859375,-0.022949219,-1.034668,-0.009578027,0.018091828,0.13834926,193.50002,34.800003,-27.6,43.32647,-193.80473,0.0,1,0,0,3.9257648,3.0468452,false,0.0
18579,-0.005859375,-0.022949219,-1.034668,-0.009578027,0.018091828,0.13834926,193.50002,34.800003,-27.6,43.32647,-193.80473,0.0,1,0,0,3.9257648,3.0468452,false,0.0
18579,-0.005859375,-0.022949219,-1.034668,-0.009578027,0.018091828,0.13834926,193.50002,34.800003,-27.6,43.32647,-193.80473,0.0,1,0,0,3.9257648,3.0468452,false,0.0
18579,-0.005859375,-0.022949219,-1.034668,-0.009578027,0.018091828,0.13834926,193.50002,34.800003,-27.6,43.32647,-193.80473,0.0,1,0,0,3.9257648,3.0468452,false,0.0
18579,-0.005859375,-0.022949219,-1.034668,-0.009578027,0.018091828,0.13834926,193.50002,34.800003,-27.6,43.32647,-193.80473,0.0,1,0,0,3.9257648,3.0468452,false,0.0
18579,-0.005859375,-0.022949219,-1.034668,-0.009578027,0.018091828,0.13834926,193.50002,34.800003,-27.6,43.32647,-193.80473,0.0,1,0,0,3.9257648,3.0468452,false,0.0
18579,-0.005859375,-0.022949219,-1.034668,-0.009578027,0.018091828,0.13834926,193.50002,34.800003,-27.6,43.32647,-193.80473,0.0,1,0,0,3.9257648,3.0468452,false,0.0
18579,-0.005859375,-0.022949219,-1.034668,-0.009578027,0.018091828,0.13834926,193.50002,34.800003,-27.6,43.32647,-193.80473,0.0,1,0,0,3.9257648,3.0468452,false,0.0
18579,-0.005859375,-0.022949219,-1.0351562,-0.010642252,0.019156054,0.13834926,191.40001,39.0,-27.6,43.32353,-193.80473,0.0,1,0,0,3.9257648,3.0468452,false,0.0
18642,-0.005859375,-0.022949219,-1.0351562,-0.010642252,0.019156054,0.13834926,191.40001,39.0,-27.6,43.32353,-193.80473,0.0,1,0,0,3.9257648,3.0468452,false,0.0
18643,-0.005859375,-0.022949219,-1.0351562,-0.010642252,0.019156054,0.13834926,191.40001,39.0,-27.6,43.32353,-193.80473,0.0,1,0,0,3.9257648,3.0468452,false,0.0
18643,-0.005859375,-0.022949219,-1.0351562,-0.010642252,0.019156054,0.13834926,191.40001,39.0,-27.6,43.32353,-193.80473,0.0,1,0,0,3.9257648,3.0468452,false,0.0
18643,-0.005859375,-0.022949219,-1.0351562,-0.010642252,0.019156054,0.13834926,191.40001,39.0,-27.6,43.32353,-193.80473,0.0,1,0,0,3.9257648,3.0468452,false,0.0
18643,-0.005859375,-0.022949219,-1.0351562,-0.010642252,0.019156054,0.13834926,191.40001,39.0,-27.6,43.32353,-193.80473,0.0,1,0,0,3.9257648,3.0468452,false,0.0
18643,-0.005859375,-0.022949219,-1.0351562,-0.010642252,0.019156054,0.13834926,191.40001,39.0,-27.6,43.32353,-193.80473,0.0,1,0,0,3.9257648,3.0468452,false,0.0
18643,-0.005859375,-0.022949219,-1.0351562,-0.010642252,0.019156054,0.13834926,191.40001,39.0,-27.6,43.32353,-193.80473,0.0,1,0,0,3.9257648,3.0468452,false,0.0
18643,-0.005859375,-0.022949219,-1.0351562,-0.010642252,0.019156054,0.13834926,191.40001,39.0,-27.6,43.32353,-193.80473,0.0,1,0,0,3.9257648,3.0468452,false,0.0
18643,-0.005859375,-0.022949219,-1.0351562,-0.010642252,0.019156054,0.13834926,191.40001,39.0,-27.6,43.32353,-193.80473,0.0,1,0,0,3.9257648,3.0468452,false,0.0
18643,-0.005859375,-0.022949219,-1.0351562,-0.010642252,0.019156054,0.13834926,191.40001,39.0,-27.6,43.32353,-193.80473,0.0,1,0,0,3.9257648,3.0468452,false,0.0
18643,-0.005859375,-0.022949219,-1.0351562,-0.010642252,0.019156054,0.13834926,191.40001,39.0,-27.6,43.32353,-193.80473,0.0,1,0,0,3.9257648,3.0468452,false,0.0
18643,-0.005859375,-0.022949219,-1.0351562,-0.010642252,0.019156054,0.13834926,191.40001,39.0,-27.6,43.32353,-193.80473,0.0,1,0,0,3.9257648,3.0468452,false,0.0
18644,-0.005859375,-0.022949219,-1.0351562,-0.010642252,0.019156054,0.13834926,191.40001,39.0,-27.6,43.32353,-193.80473,0.0,1,0,0,3.9257648,3.0468452,false,0.0
18644,-0.005859375,-0.022949219,-1.0351562,-0.010642252,0.019156054,0.13834926,191.40001,39.0,-27.6,43.32353,-193.80473,0.0,1,0,0,3.9257648,3.0468452,false,0.0
18644,-0.005859375,-0.022949219,-1.0351562,-0.010642252,0.019156054,0.13834926,191.40001,39.0,-27.6,43.32353,-193.80473,0.0,1,0,0,3.9257648,3.0468452,false,0.0
18644,-0.005859375,-0.022949219,-1.0351562,-0.010642252,0.019156054,0.13834926,191.40001,39.0,-27.6,43.32353,-193.80473,0.0,1,0,0,3.9257648,3.0468452,false,0.0
18644,-0.005859375,-0.022949219,-1.0351562,-0.010642252,0.019156054,0.13834926,191.40001,39.0,-27.6,43.32353,-193.80473,0.0,1,0,0,3.9257648,3.0468452,false,0.0
18644,-0.005859375,-0.022949219,-1.0351562,-0.010642252,0.019156054,0.13834926,191.40001,39.0,-27.6,43.32353,-193.80473,0.0,1,0,0,3.9257648,3.0468452,false,0.0
18644,-0.005859375,-0.022949219,-1.0351562,-0.010642252,0.019156054,0.13834926,191.40001,39.0,-27.6,43.32353,-193.80473,0.0,1,0,0,3.9257648,3.0468452,false,0.0
18644,-0.005859375,-0.022949219,-1.0351562,-0.010642252,0.019156054,0.13834926,191.40001,39.0,-27.6,43.32353,-193.80473,0.0,1,0,0,3.9257648,3.0468452,false,0.0
18644,-0.005859375,-0.022949219,-1.0351562,-0.010642252,0.019156054,0.13834926,191.40001,39.0,-27.6,43.32353,-193.80473,0.0,1,0,0,3.9257648,3.0468452,false,0.0
18644,-0.005859375,-0.022949219,-1.0351562,-0.010642252,0.019156054,0.13834926,191.40001,39.0,-27.6,43.32353,-193.80473,0.0,1,0,0,3.9257648,3.0468452,false,0.0
18644,-0.005859375,-0.022949219,-1.0351562,-0.010642252,0.019156054,0.13834926,191.40001,39.0,-27.6,43.32353,-193.80473,0.0,1,0,0,3.9257648,3.0468452,false,0.0
18644,-0.005859375,-0.022949219,-1.0351562,-0.010642252,0.019156054,0.13834926,191.40001,39.0,-27.6,43.32353,-193.80473,0.0,1,0,0,3.9257648,3.0468452,false,0.0
18644,-0.005859375,-0.022949219,-1.0351562,-0.010642252,0.019156054,0.13834926,191.40001,39.0,-27.6,43.32353,-193.80473,0.0,1,0,0,3.9257648,3.0468452,false,0.0
18644,-0.005859375,-0.022949219,-1.0351562,-0.010642252,0.019156054,0.13834926,191.40001,39.0,-27.6,43.32353,-193.80473,0.0,1,0,0,3.9257648,3.0468452,false,0.0
18644,-0.005859375,-0.022949219,-1.0351562,-0.010642252,0.019156054,0.13834926,191.40001,39.0,-27.6,43.32353,-193.80473,0.0,1,0,0,3.9257648,3.0468452,false,0.0
18644,-0.005859375,-0.022949219,-1.0351562,-0.010642252,0.019156054,0.13834926,191.40001,39.0,-27.6,43.32353,-193.80473,0.0,1,0,0,3.9257648,3.0468452,false,0.0
18644,-0.005859375,-0.022949219,-1.0351562,-0.010642252,0.019156054,0.13834926,191.40001,39.0,-27.6,43.32353,-193.80473,0.0,1,0,0,3.9257648,3.0468452,false,0.0
18644,-0.005859375,-0.022949219,-1.0351562,-0.010642252,0.019156054,0.13834926,191.40001,39.0,-27.6,43.32353,-193.80473,0.0,1,0,0,3.9257648,3.0468452,false,0.0
18644,-0.005859375,-0.022949219,-1.0351562,-0.010642252,0.019156054,0.13834926,191.40001,39.0,-27.6,43.32353,-193.80473,0.0,1,0,0,3.9257648,3.0468452,false,0.0
18644,-0.005859375,-0.022949219,-1.0351562,-0.010642252,0.019156054,0.13834926,191.40001,39.0,-27.6,43.32353,-193.80473,0.0,1,0,0,3.9257648,3.0468452,false,0.0
18644,-0.005859375,-0.022949219,-1.0351562,-0.010642252,0.019156054,0.13834926,191.40001,39.0,-27.6,43.32353,-193.80473,0.0,1,0,0,3.9257648,3.0468452,false,0.0
18644,-0.005859375,-0.022949219,-1.0351562,-0.010642252,0.019156054,0.13834926,191.40001,39.0,-27.6,43.32353,-193.80473,0.0,1,0,0,3.9257648,3.0468452,false,0.0
18644,-0.005859375,-0.022949219,-1.0351562,-0.010642252,0.019156054,0.13834926,191.40001,39.0,-27.6,43.32353,-193.80473,0.0,1,0,0,3.9257648,3.0468452,false,0.0
18644,-0.005859375,-0.022949219,-1.0351562,-0.010642252,0.019156054,0.13834926,191.40001,39.0,-27.6,43.32353,-193.80473,0.0,1,0,0,3.9257648,3.0468452,false,0.0
18644,-0.005859375,-0.022949219,-1.0351562,-0.010642252,0.019156054,0.13834926,191.40001,39.0,-27.6,43.32353,-193.80473,0.0,1,0,0,3.9257648,3.0468452,false,0.0
18644,-0.005859375,-0.022949219,-1.0351562,-0.010642252,0.019156054,0.13834926,191.40001,39.0,-27.6,43.32353,-193.80473,0.0,1,0,0,3.9257648,3.0468452,false,0.0
18644,-0.005859375,-0.022949219,-1.0351562,-0.010642252,0.019156054,0.13834926,191.40001,39.0,-27.6,43.32353,-193.80473,0.0,1,0,0,3.9257648,3.0468452,false,0.0
18645,-0.005859375,-0.022949219,-1.0351562,-0.010642252,0.019156054,0.13834926,191.40001,39.0,-27.6,43.32353,-193.80473,0.0,1,0,0,3.9257648,3.0468452,false,0.0
18645,-0.005859375,-0.022949219,-1.0351562,-0.010642252,0.019156054,0.13834926,191.40001,39.0,-27.6,43.32353,-193.80473,0.0,1,0,0,3.9257648,3.0468452,false,0.0
18645,-0.005859375,-0.022949219,-1.0351562,-0.010642252,0.019156054,0.13834926,191.40001,39.0,-27.6,43.32353,-193.80473,0.0,1,0,0,3.9257648,3.0468452,false,0.0
18645,-0.0053710938,-0.020996094,-1.0351562,-0.006385351,0.020220278,0.14047772,188.1,35.7,-30.000002,43.335293,-193.80473,0.0,1,0,0,3.9316397,3.0350957,false,0.0
18645,-0.0053710938,-0.020996094,-1.0351562,-0.006385351,0.020220278,0.14047772,188.1,35.7,-30.000002,43.335293,-193.80473,0.0,1,0,0,3.9316397,3.0350957,false,0.0
18645,-0.0053710938,-0.020996094,-1.0351562,-0.006385351,0.020220278,0.14047772,188.1,35.7,-30.000002,43.335293,-193.80473,0.0,1,0,0,3.9316397,3.0350957,false,0.0
18645,-0.0053710938,-0.020996094,-1.0351562,-0.006385351,0.020220278,0.14047772,188.1,35.7,-30.000002,43.335293,-193.80473,0.0,1,0,0,3.9316397,3.0350957,false,0.0
18645,-0.0053710938,-0.020996094,-1.0351562,-0.006385351,0.020220278,0.14047772,188.1,35.7,-30.000002,43.335293,-193.80473,0.0,1,0,0,3.9316397,3.0350957,false,0.0
18645,-0.0053710938,-0.020996094,-1.0351562,-0.006385351,0.020220278,0.14047772,188.1,35.7,-30.000002,43.335293,-193.80473,0.0,1,0,0,3.9316397,3.0350957,false,0.0
18645,-0.0053710938,-0.020996094,-1.0351562,-0.006385351,0.020220278,0.14047772,188.1,35.7,-30.000002,43.335293,-193.80473,0.0,1,0,0,3.9316397,3.0350957,false,0.0
18645,-0.0053710938,-0.020996094,-1.0351562,-0.006385351,0.020220278,0.14047772,188.1,35.7,-30.000002,43.335293,-193.80473,0.0,1,0,0,3.9316397,3.0350957,false,0.0
18646,-0.0053710938,-0.020996094,-1.0351562,-0.006385351,0.020220278,0.14047772,188.1,35.7,-30.000002,43.335293,-193.80473,0.0,1,0,0,3.9316397,3.0350957,false,0.0
18646,-0.0053710938,-0.020996094,-1.0351562,-0.006385351,0.020220278,0.14047772,188.1,35.7,-30.000002,43.335293,-193.80473,0.0,1,0,0,3.9316397,3.0350957,false,0.0
18646,-0.0053710938,-0.020996094,-1.0351562,-0.006385351,0.020220278,0.14047772,188.1,35.7,-30.000002,43.335293,-193.80473,0.0,1,0,0,3.9316397,3.0350957,false,0.0
18646,-0.0053710938,-0.020996094,-1.0351562,-0.006385351,0.020220278,0.14047772,188.1,35.7,-30.000002,43.335293,-193.80473,0.0,1,0,0,3.9316397,3.0350957,false,0.0
18646,-0.0053710938,-0.020996094,-1.0351562,-0.006385351,0.020220278,0.14047772,188.1,35.7,-30.000002,43.335293,-193.80473,0.0,1,0,0,3.9316397,3.0350957,false,0.0
18646,-0.0053710938,-0.020996094,-1.0351562,-0.006385351,0.020220278,0.14047772,188.1,35.7,-30.000002,43.335293,-193.80473,0.0,1,0,0,3.9316397,3.0350957,false,0.0
18646,-0.0053710938,-0.020996094,-1.0351562,-0.006385351,0.020220278,0.14047772,188.1,35.7,-30.000002,43.335293,-193.80473,0.0,1,0,0,3.9316397,3.0350957,false,0.0
18646,-0.0053710938,-0.020996094,-1.0351562,-0.006385351,0.020220278,0.14047772,188.1,35.7,-30.000002,43.335293,-193.80473,0.0,1,0,0,3.9316397,3.0350957,false,0.0
18646,-0.0053710938,-0.020996094,-1.0351562,-0.006385351,0.020220278,0.14047772,188.1,35.7,-30.000002,43.335293,-193.80473,0.0,1,0,0,3.9316397,3.0350957,false,0.0
18646,-0.0053710938,-0.020996094,-1.0351562,-0.006385351,0.020220278,0.14047772,188.1,35.7,-30.000002,43.335293,-193.80473,0.0,1,0,0,3.9316397,3.0350957,false,0.0
18646,-0.0053710938,-0.020996094,-1.0351562,-0.006385351,0.020220278,0.14047772,188.1,35.7,-30.000002,43.335293,-193.80473,0.0,1,0,0,3.9316397,3.0350957,false,0.0
18646,-0.0053710938,-0.020996094,-1.0351562,-0.006385351,0.020220278,0.14047772,188.1,35.7,-30.000002,43.335293,-193.80473,0.0,1,0,0,3.9316397,3.0350957,false,0.0
18646,-0.0053710938,-0.020996094,-1.0351562,-0.006385351,0.020220278,0.14047772,188.1,35.7,-30.000002,43.335293,-193.80473,0.0,1,0,0,3.9316397,3.0350957,false,0.0
18646,-0.0053710938,-0.020996094,-1.0351562,-0.006385351,0.020220278,0.14047772,188.1,35.7,-30.000002,43.335293,-193.80473,0.0,1,0,0,3.9316397,3.0350957,false,0.0
18646,-0.0053710938,-0.020996094,-1.0351562,-0.006385351,0.020220278,0.14047772,188.1,35.7,-30.000002,43.335293,-193.80473,0.0,1,0,0,3.9316397,3.0350957,false,0.0
18646,-0.0053710938,-0.020996094,-1.0351562,-0.006385351,0.020220278,0.14047772,188.1,35.7,-30.000002,43.335293,-193.80473,0.0,1,0,0,3.9316397,3.0350957,false,0.0
18646,-0.0053710938,-0.020996094,-1.0351562,-0.006385351,0.020220278,0.14047772,188.1,35.7,-30.000002,43.335293,-193.80473,0.0,1,0,0,3.9316397,3.0350957,false,0.0
18646,-0.0053710938,-0.020996094,-1.0351562,-0.006385351,0.020220278,0.14047772,188.1,35.7,-30.000002,43.335293,-193.80473,0.0,1,0,0,3.9316397,3.0350957,false,0.0
18646,-0.0053710938,-0.020996094,-1.0351562,-0.006385351,0.020220278,0.14047772,188.1,35.7,-30.000002,43.335293,-193.80473,0.0,1,0,0,3.9316397,3.0350957,false,0.0
18646,-0.0053710938,-0.020996094,-1.0351562,-0.006385351,0.020220278,0.14047772,188.1,35.7,-30.000002,43.335293,-193.80473,0.0,1,0,0,3.9316397,3.0350957,false,0.0
18646,-0.0053710938,-0.020996094,-1.0351562,-0.006385351,0.020220278,0.14047772,188.1,35.7,-30.000002,43.335293,-193.80473,0.0,1,0,0,3.9316397,3.0350957,false,0.0
18646,-0.0053710938,-0.020996094,-1.0351562,-0.006385351,0.020220278,0.14047772,188.1,35.7,-30.000002,43.335293,-193.80473,0.0,1,0,0,3.9316397,3.0350957,false,0.0
18647,-0.0053710938,-0.020996094,-1.0351562,-0.006385351,0.020220278,0.14047772,188.1,35.7,-30.000002,43.335293,-193.80473,0.0,1,0,0,3.9316397,3.0350957,false,0.0
18647,-0.0053710938,-0.020996094,-1.0351562,-0.006385351,0.020220278,0.14047772,188.1,35.7,-30.000002,43.335293,-193.80473,0.0,1,0,0,3.9316397,3.0350957,false,0.0
18647,-0.0053710938,-0.020996094,-1.0351562,-0.006385351,0.020220278,0.14047772,188.1,35.7,-30.000002,43.335293,-193.80473,0.0,1,0,0,3.9316397,3.0350957,false,0.0
18647,-0.0053710938,-0.020996094,-1.0351562,-0.006385351,0.020220278,0.14047772,188.1,35.7,-30.000002,43.335293,-193.80473,0.0,1,0,0,3.9316397,3.0350957,false,0.0
18647,-0.0053710938,-0.020996094,-1.0351562,-0.006385351,0.020220278,0.14047772,188.1,35.7,-30.000002,43.335293,-193.80473,0.0,1,0,0,3.9316397,3.0350957,false,0.0
18647,-0.0053710938,-0.020996094,-1.0351562,-0.006385351,0.020220278,0.14047772,188.1,35.7,-30.000002,43.335293,-193.80473,0.0,1,0,0,3.9316397,3.0350957,false,0.0
18647,-0.0053710938,-0.020996094,-1.0351562,-0.006385351,0.020220278,0.14047772,188.1,35.7,-30.000002,43.335293,-193.80473,0.0,1,0,0,3.9316397,3.0350957,false,0.0
18647,-0.0053710938,-0.020996094,-1.0351562,-0.006385351,0.020220278,0.14047772,188.1,35.7,-30.000002,43.335293,-193.80473,0.0,1,0,0,3.9316397,3.0350957,false,0.0
18647,-0.0053710938,-0.020996094,-1.0351562,-0.006385351,0.020220278,0.14047772,188.1,35.7,-30.000002,43.335293,-193.80473,0.0,1,0,0,3.9316397,3.0350957,false,0.0
18647,-0.0053710938,-0.020996094,-1.0351562,-0.006385351,0.020220278,0.14047772,188.1,35.7,-30.000002,43.335293,-193.80473,0.0,1,0,0,3.9316397,3.0350957,false,0.0
18647,-0.0053710938,-0.020996094,-1.0351562,-0.006385351,0.020220278,0.14047772,188.1,35.7,-30.000002,43.335293,-193.80473,0.0,1,0,0,3.9316397,3.0350957,false,0.0
18647,-0.0053710938,-0.020996094,-1.0351562,-0.006385351,0.020220278,0.14047772,188.1,35.7,-30.000002,43.335293,-193.80473,0.0,1,0,0,3.9316397,3.0350957,false,0.0
18647,-0.0053710938,-0.020996094,-1.0351562,-0.006385351,0.020220278,0.14047772,188.1,35.7,-30.000002,43.335293,-193.80473,0.0,1,0,0,3.9316397,3.0350957,false,0.0
18647,-0.0087890625,-0.024902344,-1.0341797,-0.011706477,0.018091828,0.13941349,188.70001,35.7,-27.000002,43.3,-193.80473,0.0,1,0,0,3.9198902,3.0468452,false,0.0
18706,-0.0087890625,-0.024902344,-1.0341797,-0.011706477,0.018091828,0.13941349,188.70001,35.7,-27.000002,43.3,-193.80473,0.0,1,0,0,3.9198902,3.0468452,false,0.0
18708,-0.0087890625,-0.024902344,-1.0341797,-0.011706477,0.018091828,0.13941349,188.70001,35.7,-27.000002,43.3,-193.80473,0.0,1,0,0,3.9198902,3.0468452,false,0.0
18709,-0.0087890625,-0.024902344,-1.0341797,-0.011706477,0.018091828,0.13941349,188.70001,35.7,-27.000002,43.3,-193.80473,0.0,1,0,0,3.9198902,3.0468452,false,0.0
18709,-0.0087890625,-0.024902344,-1.0341797,-0.011706477,0.018091828,0.13941349,188.70001,35.7,-27.000002,43.3,-193.80473,0.0,1,0,0,3.9198902,3.0468452,false,0.0
18709,-0.0087890625,-0.024902344,-1.0341797,-0.011706477,0.018091828,0.13941349,188.70001,35.7,-27.000002,43.3,-193.80473,0.0,1,0,0,3.9198902,3.0468452,false,0.0
18709,-0.0087890625,-0.024902344,-1.0341797,-0.011706477,0.018091828,0.13941349,188.70001,35.7,-27.000002,43.3,-193.80473,0.0,1,0,0,3.9198902,3.0468452,false,0.0
18709,-0.0087890625,-0.024902344,-1.0341797,-0.011706477,0.018091828,0.13941349,188.70001,35.7,-27.000002,43.3,-193.80473,0.0,1,0,0,3.9198902,3.0468452,false,0.0
18709,-0.0087890625,-0.024902344,-1.0341797,-0.011706477,0.018091828,0.13941349,188.70001,35.7,-27.000002,43.3,-193.80473,0.0,1,0,0,3.9198902,3.0468452,false,0.0
18709,-0.0087890625,-0.024902344,-1.0341797,-0.011706477,0.018091828,0.13941349,188.70001,35.7,-27.000002,43.3,-193.80473,0.0,1,0,0,3.9198902,3.0468452,false,0.0
18709,-0.0087890625,-0.024902344,-1.0341797,-0.011706477,0.018091828,0.13941349,188.70001,35.7,-27.000002,43.3,-193.80473,0.0,1,0,0,3.9198902,3.0468452,false,0.0
18709,-0.0087890625,-0.024902344,-1.0341797,-0.011706477,0.018091828,0.13941349,188.70001,35.7,-27.000002,43.3,-193.80473,0.0,1,0,0,3.9198902,3.0468452,false,0.0
18709,-0.0087890625,-0.024902344,-1.0341797,-0.011706477,0.018091828,0.13941349,188.70001,35.7,-27.000002,43.3,-193.80473,0.0,1,0,0,3.9198902,3.0468452,false,0.0
18709,-0.0087890625,-0.024902344,-1.0341797,-0.011706477,0.018091828,0.13941349,188.70001,35.7,-27.000002,43.3,-193.80473,0.0,1,0,0,3.9198902,3.0468452,false,0.0
18709,-0.0087890625,-0.024902344,-1.0341797,-0.011706477,0.018091828,0.13941349,188.70001,35.7,-27.000002,43.3,-193.80473,0.0,1,0,0,3.9198902,3.0468452,false,0.0
18709,-0.0087890625,-0.024902344,-1.0341797,-0.011706477,0.018091828,0.13941349,188.70001,35.7,-27.000002,43.3,-193.80473,0.0,1,0,0,3.9198902,3.0468452,false,0.0
18709,-0.0087890625,-0.024902344,-1.0341797,-0.011706477,0.018091828,0.13941349,188.70001,35.7,-27.000002,43.3,-193.80473,0.0,1,0,0,3.9198902,3.0468452,false,0.0
18709,-0.0087890625,-0.024902344,-1.0341797,-0.011706477,0.018091828,0.13941349,188.70001,35.7,-27.000002,43.3,-193.80473,0.0,1,0,0,3.9198902,3.0468452,false,0.0
18709,-0.0087890625,-0.024902344,-1.0341797,-0.011706477,0.018091828,0.13941349,188.70001,35.7,-27.000002,43.3,-193.80473,0.0,1,0,0,3.9198902,3.0468452,false,0.0
18709,-0.0087890625,-0.024902344,-1.0341797,-0.011706477,0.018091828,0.13941349,188.70001,35.7,-27.000002,43.3,-193.80473,0.0,1,0,0,3.9198902,3.0468452,false,0.0
18709,-0.0087890625,-0.024902344,-1.0341797,-0.011706477,0.018091828,0.13941349,188.70001,35.7,-27.000002,43.3,-193.80473,0.0,1,0,0,3.9198902,3.0468452,false,0.0
18709,-0.0087890625,-0.024902344,-1.0341797,-0.011706477,0.018091828,0.13941349,188.70001,35.7,-27.000002,43.3,-193.80473,0.0,1,0,0,3.9198902,3.0468452,false,0.0
18709,-0.0087890625,-0.024902344,-1.0341797,-0.011706477,0.018091828,0.13941349,188.70001,35.7,-27.000002,43.3,-193.80473,0.0,1,0,0,3.9198902,3.0468452,false,0.0
18709,-0.0087890625,-0.024902344,-1.0341797,-0.011706477,0.018091828,0.13941349,188.70001,35.7,-27.000002,43.3,-193.80473,0.0,1,0,0,3.9198902,3.0468452,false,0.0
18709,-0.0087890625,-0.024902344,-1.0341797,-0.011706477,0.018091828,0.13941349,188.70001,35.7,-27.000002,43.3,-193.80473,0.0,1,0,0,3.9198902,3.0468452,false,0.0
18709,-0.0087890625,-0.024902344,-1.0341797,-0.011706477,0.018091828,0.13941349,188.70001,35.7,-27.000002,43.3,-193.80473,0.0,1,0,0,3.9198902,3.0468452,false,0.0
18709,-0.0087890625,-0.024902344,-1.0341797,-0.011706477,0.018091828,0.13941349,188.70001,35.7,-27.000002,43.3,-193.80473,0.0,1,0,0,3.9198902,3.0468452,false,0.0
18709,-0.0087890625,-0.024902344,-1.0341797,-0.011706477,0.018091828,0.13941349,188.70001,35.7,-27.000002,43.3,-193.80473,0.0,1,0,0,3.9198902,3.0468452,false,0.0
18709,-0.0087890625,-0.024902344,-1.0341797,-0.011706477,0.018091828,0.13941349,188.70001,35.7,-27.000002,43.3,-193.80473,0.0,1,0,0,3.9198902,3.0468452,false,0.0
18709,-0.0087890625,-0.024902344,-1.0341797,-0.011706477,0.018091828,0.13941349,188.70001,35.7,-27.000002,43.3,-193.80473,0.0,1,0,0,3.9198902,3.0468452,false,0.0
18709,-0.0087890625,-0.024902344,-1.0341797,-0.011706477,0.018091828,0.13941349,188.70001,35.7,-27.000002,43.3,-193.80473,0.0,1,0,0,3.9198902,3.0468452,false,0.0
18709,-0.0087890625,-0.024902344,-1.0341797,-0.011706477,0.018091828,0.13941349,188.70001,35.7,-27.000002,43.3,-193.80473,0.0,1,0,0,3.9198902,3.0468452,false,0.0
18709,-0.0087890625,-0.024902344,-1.0341797,-0.011706477,0.018091828,0.13941349,188.70001,35.7,-27.000002,43.3,-193.80473,0.0,1,0,0,3.9198902,3.0468452,false,0.0
18709,-0.0087890625,-0.024902344,-1.0341797,-0.011706477,0.018091828,0.13941349,188.70001,35.7,-27.000002,43.3,-193.80473,0.0,1,0,0,3.9198902,3.0468452,false,0.0
18709,-0.0087890625,-0.024902344,-1.0341797,-0.011706477,0.018091828,0.13941349,188.70001,35.7,-27.000002,43.3,-193.80473,0.0,1,0,0,3.9198902,3.0468452,false,0.0
18709,-0.0087890625,-0.024902344,-1.0341797,-0.011706477,0.018091828,0.13941349,188.70001,35.7,-27.000002,43.3,-193.80473,0.0,1,0,0,3.9198902,3.0468452,false,0.0
18710,-0.0087890625,-0.024902344,-1.0341797,-0.011706477,0.018091828,0.13941349,188.70001,35.7,-27.000002,43.3,-193.80473,0.0,1,0,0,3.9198902,3.0468452,false,0.0
18710,-0.0087890625,-0.024902344,-1.0341797,-0.011706477,0.018091828,0.13941349,188.70001,35.7,-27.000002,43.3,-193.80473,0.0,1,0,0,3.9198902,3.0468452,false,0.0
18710,-0.0087890625,-0.024902344,-1.0341797,-0.011706477,0.018091828,0.13941349,188.70001,35.7,-27.000002,43.3,-193.80473,0.0,1,0,0,3.9198902,3.0468452,false,0.0
18710,-0.0087890625,-0.024902344,-1.0341797,-0.011706477,0.018091828,0.13941349,188.70001,35.7,-27.000002,43.3,-193.80473,0.0,1,0,0,3.9198902,3.0468452,false,0.0
18710,-0.0087890625,-0.024902344,-1.0341797,-0.011706477,0.018091828,0.13941349,188.70001,35.7,-27.000002,43.3,-193.80473,0.0,1,0,0,3.9198902,3.0468452,false,0.0
18710,-0.0087890625,-0.024902344,-1.0341797,-0.011706477,0.018091828,0.13941349,188.70001,35.7,-27.000002,43.3,-193.80473,0.0,1,0,0,3.9198902,3.0468452,false,0.0
18710,-0.0087890625,-0.024902344,-1.0341797,-0.011706477,0.018091828,0.13941349,188.70001,35.7,-27.000002,43.3,-193.80473,0.0,1,0,0,3.9198902,3.0468452,false,0.0
18710,-0.001953125,-0.0234375,-1.0341797,-0.004256901,0.021284504,0.13834926,190.5,34.800003,-26.1,43.30294,-193.80473,0.0,1,0,0,3.9257648,3.0468452,false,0.0
18768,-0.001953125,-0.0234375,-1.0341797,-0.004256901,0.021284504,0.13834926,190.5,34.800003,-26.1,43.30294,-193.80473,0.0,1,0,0,3.9257648,3.0468452,false,0.0
18768,-0.001953125,-0.0234375,-1.0341797,-0.004256901,0.021284504,0.13834926,190.5,34.800003,-26.1,43.30294,-193.80473,0.0,1,0,0,3.9257648,3.0468452,false,0.0
18768,-0.001953125,-0.0234375,-1.0341797,-0.004256901,0.021284504,0.13834926,190.5,34.800003,-26.1,43.30294,-193.80473,0.0,1,0,0,3.9257648,3.0468452,false,0.0
18768,-0.001953125,-0.0234375,-1.0341797,-0.004256901,0.021284504,0.13834926,190.5,34.800003,-26.1,43.30294,-193.80473,0.0,1,0,0,3.9257648,3.0468452,false,0.0
18768,-0.001953125,-0.0234375,-1.0341797,-0.004256901,0.021284504,0.13834926,190.5,34.800003,-26.1,43.30294,-193.80473,0.0,1,0,0,3.9257648,3.0468452,false,0.0
18768,-0.001953125,-0.0234375,-1.0341797,-0.004256901,0.021284504,0.13834926,190.5,34.800003,-26.1,43.30294,-193.80473,0.0,1,0,0,3.9257648,3.0468452,false,0.0
18768,-0.001953125,-0.0234375,-1.0341797,-0.004256901,0.021284504,0.13834926,190.5,34.800003,-26.1,43.30294,-193.80473,0.0,1,0,0,3.9257648,3.0468452,false,0.0
18768,-0.001953125,-0.0234375,-1.0341797,-0.004256901,0.021284504,0.13834926,190.5,34.800003,-26.1,43.30294,-193.80473,0.0,1,0,0,3.9257648,3.0468452,false,0.0
18768,-0.001953125,-0.0234375,-1.0341797,-0.004256901,0.021284504,0.13834926,190.5,34.800003,-26.1,43.30294,-193.80473,0.0,1,0,0,3.9257648,3.0468452,false,0.0
18768,-0.001953125,-0.0234375,-1.0341797,-0.004256901,0.021284504,0.13834926,190.5,34.800003,-26.1,43.30294,-193.80473,0.0,1,0,0,3.9257648,3.0468452,false,0.0
18768,-0.001953125,-0.0234375,-1.0341797,-0.004256901,0.021284504,0.13834926,190.5,34.800003,-26.1,43.30294,-193.80473,0.0,1,0,0,3.9257648,3.0468452,false,0.0
18768,-0.001953125,-0.0234375,-1.0341797,-0.004256901,0.021284504,0.13834926,190.5,34.800003,-26.1,43.30294,-193.80473,0.0,1,0,0,3.9257648,3.0468452,false,0.0
18768,-0.001953125,-0.0234375,-1.0341797,-0.004256901,0.021284504,0.13834926,190.5,34.800003,-26.1,43.30294,-193.80473,0.0,1,0,0,3.9257648,3.0468452,false,0.0
18768,-0.001953125,-0.0234375,-1.0341797,-0.004256901,0.021284504,0.13834926,190.5,34.800003,-26.1,43.30294,-193.80473,0.0,1,0,0,3.9257648,3.0468452,false,0.0
18768,-0.001953125,-0.0234375,-1.0341797,-0.004256901,0.021284504,0.13834926,190.5,34.800003,-26.1,43.30294,-193.80473,0.0,1,0,0,3.9257648,3.0468452,false,0.0
18768,-0.001953125,-0.0234375,-1.0341797,-0.004256901,0.021284504,0.13834926,190.5,34.800003,-26.1,43.30294,-193.80473,0.0,1,0,0,3.9257648,3.0468452,false,0.0
18768,-0.001953125,-0.0234375,-1.0341797,-0.004256901,0.021284504,0.13834926,190.5,34.800003,-26.1,43.30294,-193.80473,0.0,1,0,0,3.9257648,3.0468452,false,0.0
18768,-0.001953125,-0.0234375,-1.0341797,-0.004256901,0.021284504,0.13834926,190.5,34.800003,-26.1,43.30294,-193.80473,0.0,1,0,0,3.9257648,3.0468452,false,0.0
18768,-0.001953125,-0.0234375,-1.0341797,-0.004256901,0.021284504,0.13834926,190.5,34.800003,-26.1,43.30294,-193.80473,0.0,1,0,0,3.9257648,3.0468452,false,0.0
18768,-0.001953125,-0.0234375,-1.0341797,-0.004256901,0.021284504,0.13834926,190.5,34.800003,-26.1,43.30294,-193.80473,0.0,1,0,0,3.9257648,3.0468452,false,0.0
18768,-0.001953125,-0.0234375,-1.0341797,-0.004256901,0.021284504,0.13834926,190.5,34.800003,-26.1,43.30294,-193.80473,0.0,1,0,0,3.9257648,3.0468452,false,0.0
18768,-0.001953125,-0.0234375,-1.0341797,-0.004256901,0.021284504,0.13834926,190.5,34.800003,-26.1,43.30294,-193.80473,0.0,1,0,0,3.9257648,3.0468452,false,0.0
18768,-0.001953125,-0.0234375,-1.0341797,-0.004256901,0.021284504,0.13834926,190.5,34.800003,-26.1,43.30294,-193.80473,0.0,1,0,0,3.9257648,3.0468452,false,0.0
18768,-0.001953125,-0.0234375,-1.0341797,-0.004256901,0.021284504,0.13834926,190.5,34.800003,-26.1,43.30294,-193.80473,0.0,1,0,0,3.9257648,3.0468452,false,0.0
18771,-0.001953125,-0.0234375,-1.0341797,-0.004256901,0.021284504,0.13834926,190.5,34.800003,-26.1,43.30294,-193.80473,0.0,1,0,0,3.9257648,3.0468452,false,0.0
18771,-0.001953125,-0.0234375,-1.0341797,-0.004256901,0.021284504,0.13834926,190.5,34.800003,-26.1,43.30294,-193.80473,0.0,1,0,0,3.9257648,3.0468452,false,0.0
18771,-0.001953125,-0.0234375,-1.0341797,-0.004256901,0.021284504,0.13834926,190.5,34.800003,-26.1,43.30294,-193.80473,0.0,1,0,0,3.9257648,3.0468452,false,0.0
18771,-0.001953125,-0.0234375,-1.0341797,-0.004256901,0.021284504,0.13834926,190.5,34.800003,-26.1,43.30294,-193.80473,0.0,1,0,0,3.9257648,3.0468452,false,0.0
18771,-0.001953125,-0.0234375,-1.0341797,-0.004256901,0.021284504,0.13834926,190.5,34.800003,-26.1,43.30294,-193.80473,0.0,1,0,0,3.9257648,3.0468452,false,0.0
18771,-0.001953125,-0.0234375,-1.0341797,-0.004256901,0.021284504,0.13834926,190.5,34.800003,-26.1,43.30294,-193.80473,0.0,1,0,0,3.9257648,3.0468452,false,0.0
18771,-0.001953125,-0.0234375,-1.0341797,-0.004256901,0.021284504,0.13834926,190.5,34.800003,-26.1,43.30294,-193.80473,0.0,1,0,0,3.9257648,3.0468452,false,0.0
18771,-0.001953125,-0.0234375,-1.0341797,-0.004256901,0.021284504,0.13834926,190.5,34.800003,-26.1,43.30294,-193.80473,0.0,1,0,0,3.9257648,3.0468452,false,0.0
18771,-0.001953125,-0.0234375,-1.0341797,-0.004256901,0.021284504,0.13834926,190.5,34.800003,-26.1,43.30294,-193.80473,0.0,1,0,0,3.9257648,3.0468452,false,0.0
18771,-0.001953125,-0.0234375,-1.0341797,-0.004256901,0.021284504,0.13834926,190.5,34.800003,-26.1,43.30294,-193.80473,0.0,1,0,0,3.9257648,3.0468452,false,0.0
18772,-0.001953125,-0.0234375,-1.0341797,-0.004256901,0.021284504,0.13834926,190.5,34.800003,-26.1,43.30294,-193.80473,0.0,1,0,0,3.9257648,3.0468452,false,0.0
18772,-0.001953125,-0.0234375,-1.0341797,-0.004256901,0.021284504,0.13834926,190.5,34.800003,-26.1,43.30294,-193.80473,0.0,1,0,0,3.9257648,3.0468452,false,0.0
18772,-0.001953125,-0.0234375,-1.0341797,-0.004256901,0.021284504,0.13834926,190.5,34.800003,-26.1,43.30294,-193.80473,0.0,1,0,0,3.9257648,3.0468452,false,0.0
18772,-0.001953125,-0.0234375,-1.0341797,-0.004256901,0.021284504,0.13834926,190.5,34.800003,-26.1,43.30294,-193.80473,0.0,1,0,0,3.9257648,3.0468452,false,0.0
18772,-0.001953125,-0.0234375,-1.0341797,-0.004256901,0.021284504,0.13834926,190.5,34.800003,-26.1,43.30294,-193.80473,0.0,1,0,0,3.9257648,3.0468452,false,0.0
18772,-0.001953125,-0.0234375,-1.0341797,-0.004256901,0.021284504,0.13834926,190.5,34.800003,-26.1,43.30294,-193.80473,0.0,1,0,0,3.9257648,3.0468452,false,0.0
18772,-0.001953125,-0.0234375,-1.0341797,-0.004256901,0.021284504,0.13834926,190.5,34.800003,-26.1,43.30294,-193.80473,0.0,1,0,0,3.9257648,3.0468452,false,0.0
18772,-0.001953125,-0.0234375,-1.0341797,-0.004256901,0.021284504,0.13834926,190.5,34.800003,-26.1,43.30294,-193.80473,0.0,1,0,0,3.9257648,3.0468452,false,0.0
18772,-0.00390625,-0.024414062,-1.0385742,-0.008513802,0.020220278,0.13834926,190.5,34.800003,-24.6,43.32353,-193.80473,0.0,1,0,0,3.9257648,3.0350957,false,0.0
18833,-0.00390625,-0.024414062,-1.0385742,-0.008513802,0.020220278,0.13834926,190.5,34.800003,-24.6,43.32353,-193.80473,0.0,1,0,0,3.9257648,3.0350957,false,0.0
18833,-0.00390625,-0.024414062,-1.0385742,-0.008513802,0.020220278,0.13834926,190.5,34.800003,-24.6,43.32353,-193.80473,0.0,1,0,0,3.9257648,3.0350957,false,0.0
18833,-0.00390625,-0.024414062,-1.0385742,-0.008513802,0.020220278,0.13834926,190.5,34.800003,-24.6,43.32353,-193.80473,0.0,1,0,0,3.9257648,3.0350957,false,0.0
18833,-0.00390625,-0.024414062,-1.0385742,-0.008513802,0.020220278,0.13834926,190.5,34.800003,-24.6,43.32353,-193.80473,0.0,1,0,0,3.9257648,3.0350957,false,0.0
18833,-0.00390625,-0.024414062,-1.0385742,-0.008513802,0.020220278,0.13834926,190.5,34.800003,-24.6,43.32353,-193.80473,0.0,1,0,0,3.9257648,3.0350957,false,0.0
18833,-0.00390625,-0.024414062,-1.0385742,-0.008513802,0.020220278,0.13834926,190.5,34.800003,-24.6,43.32353,-193.80473,0.0,1,0,0,3.9257648,3.0350957,false,0.0
18833,-0.00390625,-0.024414062,-1.0385742,-0.008513802,0.020220278,0.13834926,190.5,34.800003,-24.6,43.32353,-193.80473,0.0,1,0,0,3.9257648,3.0350957,false,0.0
18833,-0.00390625,-0.024414062,-1.0385742,-0.008513802,0.020220278,0.13834926,190.5,34.800003,-24.6,43.32353,-193.80473,0.0,1,0,0,3.9257648,3.0350957,false,0.0
18833,-0.00390625,-0.024414062,-1.0385742,-0.008513802,0.020220278,0.13834926,190.5,34.800003,-24.6,43.32353,-193.80473,0.0,1,0,0,3.9257648,3.0350957,false,0.0
18833,-0.00390625,-0.024414062,-1.0385742,-0.008513802,0.020220278,0.13834926,190.5,34.800003,-24.6,43.32353,-193.80473,0.0,1,0,0,3.9257648,3.0350957,false,0.0
18833,-0.00390625,-0.024414062,-1.0385742,-0.008513802,0.020220278,0.13834926,190.5,34.800003,-24.6,43.32353,-193.80473,0.0,1,0,0,3.9257648,3.0350957,false,0.0
18833,-0.00390625,-0.024414062,-1.0385742,-0.008513802,0.020220278,0.13834926,190.5,34.800003,-24.6,43.32353,-193.80473,0.0,1,0,0,3.9257648,3.0350957,false,0.0
18833,-0.00390625,-0.024414062,-1.0385742,-0.008513802,0.020220278,0.13834926,190.5,34.800003,-24.6,43.32353,-193.80473,0.0,1,0,0,3.9257648,3.0350957,false,0.0
18833,-0.00390625,-0.024414062,-1.0385742,-0.008513802,0.020220278,0.13834926,190.5,34.800003,-24.6,43.32353,-193.80473,0.0,1,0,0,3.9257648,3.0350957,false,0.0
18833,-0.00390625,-0.024414062,-1.0385742,-0.008513802,0.020220278,0.13834926,190.5,34.800003,-24.6,43.32353,-193.80473,0.0,1,0,0,3.9257648,3.0350957,false,0.0
18833,-0.00390625,-0.024414062,-1.0385742,-0.008513802,0.020220278,0.13834926,190.5,34.800003,-24.6,43.32353,-193.80473,0.0,1,0,0,3.9257648,3.0350957,false,0.0
18833,-0.00390625,-0.024414062,-1.0385742,-0.008513802,0.020220278,0.13834926,190.5,34.800003,-24.6,43.32353,-193.80473,0.0,1,0,0,3.9257648,3.0350957,false,0.0
18833,-0.00390625,-0.024414062,-1.0385742,-0.008513802,0.020220278,0.13834926,190.5,34.800003,-24.6,43.32353,-193.80473,0.0,1,0,0,3.9257648,3.0350957,false,0.0
18833,-0.00390625,-0.024414062,-1.0385742,-0.008513802,0.020220278,0.13834926,190.5,34.800003,-24.6,43.32353,-193.80473,0.0,1,0,0,3.9257648,3.0350957,false,0.0
18833,-0.00390625,-0.024414062,-1.0385742,-0.008513802,0.020220278,0.13834926,190.5,34.800003,-24.6,43.32353,-193.80473,0.0,1,0,0,3.9257648,3.0350957,false,0.0
18833,-0.00390625,-0.024414062,-1.0385742,-0.008513802,0.020220278,0.13834926,190.5,34.800003,-24.6,43.32353,-193.80473,0.0,1,0,0,3.9257648,3.0350957,false,0.0
18833,-0.00390625,-0.024414062,-1.0385742,-0.008513802,0.020220278,0.13834926,190.5,34.800003,-24.6,43.32353,-193.80473,0.0,1,0,0,3.9257648,3.0350957,false,0.0
18833,-0.00390625,-0.024414062,-1.0385742,-0.008513802,0.020220278,0.13834926,190.5,34.800003,-24.6,43.32353,-193.80473,0.0,1,0,0,3.9257648,3.0350957,false,0.0
18833,-0.00390625,-0.024414062,-1.0385742,-0.008513802,0.020220278,0.13834926,190.5,34.800003,-24.6,43.32353,-193.80473,0.0,1,0,0,3.9257648,3.0350957,false,0.0
18833,-0.00390625,-0.024414062,-1.0385742,-0.008513802,0.020220278,0.13834926,190.5,34.800003,-24.6,43.32353,-193.80473,0.0,1,0,0,3.9257648,3.0350957,false,0.0
18833,-0.00390625,-0.024414062,-1.0385742,-0.008513802,0.020220278,0.13834926,190.5,34.800003,-24.6,43.32353,-193.80473,0.0,1,0,0,3.9257648,3.0350957,false,0.0
18833,-0.00390625,-0.024414062,-1.0385742,-0.008513802,0.020220278,0.13834926,190.5,34.800003,-24.6,43.32353,-193.80473,0.0,1,0,0,3.9257648,3.0350957,false,0.0
18833,-0.00390625,-0.024414062,-1.0385742,-0.008513802,0.020220278,0.13834926,190.5,34.800003,-24.6,43.32353,-193.80473,0.0,1,0,0,3.9257648,3.0350957,false,0.0
18833,-0.00390625,-0.024414062,-1.0385742,-0.008513802,0.020220278,0.13834926,190.5,34.800003,-24.6,43.32353,-193.80473,0.0,1,0,0,3.9257648,3.0350957,false,0.0
18833,-0.00390625,-0.024414062,-1.0385742,-0.008513802,0.020220278,0.13834926,190.5,34.800003,-24.6,43.32353,-193.80473,0.0,1,0,0,3.9257648,3.0350957,false,0.0
18833,-0.00390625,-0.024414062,-1.0385742,-0.008513802,0.020220278,0.13834926,190.5,34.800003,-24.6,43.32353,-193.80473,0.0,1,0,0,3.9257648,3.0350957,false,0.0
18834,-0.00390625,-0.024414062,-1.0385742,-0.008513802,0.020220278,0.13834926,190.5,34.800003,-24.6,43.32353,-193.80473,0.0,1,0,0,3.9257648,3.0350957,false,0.0
18834,-0.00390625,-0.024414062,-1.0385742,-0.008513802,0.020220278,0.13834926,190.5,34.800003,-24.6,43.32353,-193.80473,0.0,1,0,0,3.9257648,3.0350957,false,0.0
18834,-0.00390625,-0.024414062,-1.0385742,-0.008513802,0.020220278,0.13834926,190.5,34.800003,-24.6,43.32353,-193.80473,0.0,1,0,0,3.9257648,3.0350957,false,0.0
18834,-0.00390625,-0.024414062,-1.0385742,-0.008513802,0.020220278,0.13834926,190.5,34.800003,-24.6,43.32353,-193.80473,0.0,1,0,0,3.9257648,3.0350957,false,0.0
18834,-0.00390625,-0.024414062,-1.0385742,-0.008513802,0.020220278,0.13834926,190.5,34.800003,-24.6,43.32353,-193.80473,0.0,1,0,0,3.9257648,3.0350957,false,0.0
18834,-0.00390625,-0.024414062,-1.0385742,-0.008513802,0.020220278,0.13834926,190.5,34.800003,-24.6,43.32353,-193.80473,0.0,1,0,0,3.9257648,3.0350957,false,0.0
18834,-0.00390625,-0.024414062,-1.0385742,-0.008513802,0.020220278,0.13834926,190.5,34.800003,-24.6,43.32353,-193.80473,0.0,1,0,0,3.9257648,3.0350957,false,0.0
18834,-0.00390625,-0.024414062,-1.0385742,-0.008513802,0.020220278,0.13834926,190.5,34.800003,-24.6,43.32353,-193.80473,0.0,1,0,0,3.9257648,3.0350957,false,0.0
18834,-0.00390625,-0.024414062,-1.0385742,-0.008513802,0.020220278,0.13834926,190.5,34.800003,-24.6,43.32353,-193.80473,0.0,1,0,0,3.9257648,3.0350957,false,0.0
18834,-0.00390625,-0.024414062,-1.0385742,-0.008513802,0.020220278,0.13834926,190.5,34.800003,-24.6,43.32353,-193.80473,0.0,1,0,0,3.9257648,3.0350957,false,0.0
18834,-0.00390625,-0.024414062,-1.0385742,-0.008513802,0.020220278,0.13834926,190.5,34.800003,-24.6,43.32353,-193.80473,0.0,1,0,0,3.9257648,3.0350957,false,0.0
18834,-0.0053710938,-0.021972656,-1.0322266,-0.009578027,0.020220278,0.14047772,189.0,35.4,-26.1,43.282352,-193.80473,0.0,1,0,0,3.8964674,3.0350957,false,0.0
18834,-0.0053710938,-0.021972656,-1.0322266,-0.009578027,0.020220278,0.14047772,189.0,35.4,-26.1,43.282352,-193.80473,0.0,1,0,0,3.8964674,3.0350957,false,0.0
18901,-0.0053710938,-0.021972656,-1.0322266,-0.009578027,0.020220278,0.14047772,189.0,35.4,-26.1,43.282352,-193.80473,0.0,1,0,0,3.8964674,3.0350957,false,0.0
18902,-0.0053710938,-0.021972656,-1.0322266,-0.009578027,0.020220278,0.14047772,189.0,35.4,-26.1,43.282352,-193.80473,0.0,1,0,0,3.8964674,3.0350957,false,0.0
18902,-0.0053710938,-0.021972656,-1.0322266,-0.009578027,0.020220278,0.14047772,189.0,35.4,-26.1,43.282352,-193.80473,0.0,1,0,0,3.8964674,3.0350957,false,0.0
18902,-0.0053710938,-0.021972656,-1.0322266,-0.009578027,0.020220278,0.14047772,189.0,35.4,-26.1,43.282352,-193.80473,0.0,1,0,0,3.8964674,3.0350957,false,0.0
18902,-0.0053710938,-0.021972656,-1.0322266,-0.009578027,0.020220278,0.14047772,189.0,35.4,-26.1,43.282352,-193.80473,0.0,1,0,0,3.8964674,3.0350957,false,0.0
18902,-0.0053710938,-0.021972656,-1.0322266,-0.009578027,0.020220278,0.14047772,189.0,35.4,-26.1,43.282352,-193.80473,0.0,1,0,0,3.8964674,3.0350957,false,0.0
18902,-0.0053710938,-0.021972656,-1.0322266,-0.009578027,0.020220278,0.14047772,189.0,35.4,-26.1,43.282352,-193.80473,0.0,1,0,0,3.8964674,3.0350957,false,0.0
18902,-0.0053710938,-0.021972656,-1.0322266,-0.009578027,0.020220278,0.14047772,189.0,35.4,-26.1,43.282352,-193.80473,0.0,1,0,0,3.8964674,3.0350957,false,0.0
18902,-0.0053710938,-0.021972656,-1.0322266,-0.009578027,0.020220278,0.14047772,189.0,35.4,-26.1,43.282352,-193.80473,0.0,1,0,0,3.8964674,3.0350957,false,0.0
18902,-0.0053710938,-0.021972656,-1.0322266,-0.009578027,0.020220278,0.14047772,189.0,35.4,-26.1,43.282352,-193.80473,0.0,1,0,0,3.8964674,3.0350957,false,0.0
18902,-0.0053710938,-0.021972656,-1.0322266,-0.009578027,0.020220278,0.14047772,189.0,35.4,-26.1,43.282352,-193.80473,0.0,1,0,0,3.8964674,3.0350957,false,0.0
18902,-0.0053710938,-0.021972656,-1.0322266,-0.009578027,0.020220278,0.14047772,189.0,35.4,-26.1,43.282352,-193.80473,0.0,1,0,0,3.8964674,3.0350957,false,0.0
18902,-0.0053710938,-0.021972656,-1.0322266,-0.009578027,0.020220278,0.14047772,189.0,35.4,-26.1,43.282352,-193.80473,0.0,1,0,0,3.8964674,3.0350957,false,0.0
18902,-0.0053710938,-0.021972656,-1.0322266,-0.009578027,0.020220278,0.14047772,189.0,35.4,-26.1,43.282352,-193.80473,0.0,1,0,0,3.8964674,3.0350957,false,0.0
18902,-0.0053710938,-0.021972656,-1.0322266,-0.009578027,0.020220278,0.14047772,189.0,35.4,-26.1,43.282352,-193.80473,0.0,1,0,0,3.8964674,3.0350957,false,0.0
18902,-0.0053710938,-0.021972656,-1.0322266,-0.009578027,0.020220278,0.14047772,189.0,35.4,-26.1,43.282352,-193.80473,0.0,1,0,0,3.8964674,3.0350957,false,0.0
18902,-0.0053710938,-0.021972656,-1.0322266,-0.009578027,0.020220278,0.14047772,189.0,35.4,-26.1,43.282352,-193.80473,0.0,1,0,0,3.8964674,3.0350957,false,0.0
18902,-0.0053710938,-0.021972656,-1.0322266,-0.009578027,0.020220278,0.14047772,189.0,35.4,-26.1,43.282352,-193.80473,0.0,1,0,0,3.8964674,3.0350957,false,0.0
18902,-0.0053710938,-0.021972656,-1.0322266,-0.009578027,0.020220278,0.14047772,189.0,35.4,-26.1,43.282352,-193.80473,0.0,1,0,0,3.8964674,3.0350957,false,0.0
18902,-0.0053710938,-0.021972656,-1.0322266,-0.009578027,0.020220278,0.14047772,189.0,35.4,-26.1,43.282352,-193.80473,0.0,1,0,0,3.8964674,3.0350957,false,0.0
18903,-0.0053710938,-0.021972656,-1.0322266,-0.009578027,0.020220278,0.14047772,189.0,35.4,-26.1,43.282352,-193.80473,0.0,1,0,0,3.8964674,3.0350957,false,0.0
18903,-0.0053710938,-0.021972656,-1.0322266,-0.009578027,0.020220278,0.14047772,189.0,35.4,-26.1,43.282352,-193.80473,0.0,1,0,0,3.8964674,3.0350957,false,0.0
18903,-0.0053710938,-0.021972656,-1.0322266,-0.009578027,0.020220278,0.14047772,189.0,35.4,-26.1,43.282352,-193.80473,0.0,1,0,0,3.8964674,3.0350957,false,0.0
18903,-0.0053710938,-0.021972656,-1.0322266,-0.009578027,0.020220278,0.14047772,189.0,35.4,-26.1,43.282352,-193.80473,0.0,1,0,0,3.8964674,3.0350957,false,0.0
18903,-0.0053710938,-0.021972656,-1.0322266,-0.009578027,0.020220278,0.14047772,189.0,35.4,-26.1,43.282352,-193.80473,0.0,1,0,0,3.8964674,3.0350957,false,0.0
18903,-0.0053710938,-0.021972656,-1.0322266,-0.009578027,0.020220278,0.14047772,189.0,35.4,-26.1,43.282352,-193.80473,0.0,1,0,0,3.8964674,3.0350957,false,0.0
18903,-0.0053710938,-0.021972656,-1.0322266,-0.009578027,0.020220278,0.14047772,189.0,35.4,-26.1,43.282352,-193.80473,0.0,1,0,0,3.8964674,3.0350957,false,0.0
18903,-0.0053710938,-0.021972656,-1.0322266,-0.009578027,0.020220278,0.14047772,189.0,35.4,-26.1,43.282352,-193.80473,0.0,1,0,0,3.8964674,3.0350957,false,0.0
18903,-0.0053710938,-0.021972656,-1.0322266,-0.009578027,0.020220278,0.14047772,189.0,35.4,-26.1,43.282352,-193.80473,0.0,1,0,0,3.8964674,3.0350957,false,0.0
18903,-0.0053710938,-0.021972656,-1.0322266,-0.009578027,0.020220278,0.14047772,189.0,35.4,-26.1,43.282352,-193.80473,0.0,1,0,0,3.8964674,3.0350957,false,0.0
18903,-0.0053710938,-0.021972656,-1.0322266,-0.009578027,0.020220278,0.14047772,189.0,35.4,-26.1,43.282352,-193.80473,0.0,1,0,0,3.8964674,3.0350957,false,0.0
18903,-0.0053710938,-0.021972656,-1.0322266,-0.009578027,0.020220278,0.14047772,189.0,35.4,-26.1,43.282352,-193.80473,0.0,1,0,0,3.8964674,3.0350957,false,0.0
18903,-0.0053710938,-0.021972656,-1.0322266,-0.009578027,0.020220278,0.14047772,189.0,35.4,-26.1,43.282352,-193.80473,0.0,1,0,0,3.8964674,3.0350957,false,0.0
18903,-0.0053710938,-0.021972656,-1.0322266,-0.009578027,0.020220278,0.14047772,189.0,35.4,-26.1,43.282352,-193.80473,0.0,1,0,0,3.8964674,3.0350957,false,0.0
18903,-0.0053710938,-0.021972656,-1.0322266,-0.009578027,0.020220278,0.14047772,189.0,35.4,-26.1,43.282352,-193.80473,0.0,1,0,0,3.8964674,3.0350957,false,0.0
18903,-0.0053710938,-0.021972656,-1.0322266,-0.009578027,0.020220278,0.14047772,189.0,35.4,-26.1,43.282352,-193.80473,0.0,1,0,0,3.8964674,3.0350957,false,0.0
18903,-0.0053710938,-0.021972656,-1.0322266,-0.009578027,0.020220278,0.14047772,189.0,35.4,-26.1,43.282352,-193.80473,0.0,1,0,0,3.8964674,3.0350957,false,0.0
18903,-0.0053710938,-0.021972656,-1.0322266,-0.009578027,0.020220278,0.14047772,189.0,35.4,-26.1,43.282352,-193.80473,0.0,1,0,0,3.8964674,3.0350957,false,0.0
18903,-0.0053710938,-0.021972656,-1.0322266,-0.009578027,0.020220278,0.14047772,189.0,35.4,-26.1,43.282352,-193.80473,0.0,1,0,0,3.8964674,3.0350957,false,0.0
18903,-0.0053710938,-0.021972656,-1.0322266,-0.009578027,0.020220278,0.14047772,189.0,35.4,-26.1,43.282352,-193.80473,0.0,1,0,0,3.8964674,3.0350957,false,0.0
18903,-0.0053710938,-0.021972656,-1.0322266,-0.009578027,0.020220278,0.14047772,189.0,35.4,-26.1,43.282352,-193.80473,0.0,1,0,0,3.8964674,3.0350957,false,0.0
18903,-0.0073242188,-0.0234375,-1.0356445,-0.010642252,0.015963377,0.13834926,189.6,38.7,-25.800001,43.285294,-193.80473,0.0,1,0,0,3.9316397,3.0350957,false,0.0
18903,-0.0073242188,-0.0234375,-1.0356445,-0.010642252,0.015963377,0.13834926,189.6,38.7,-25.800001,43.285294,-193.80473,0.0,1,0,0,3.9316397,3.0350957,false,0.0
18903,-0.0073242188,-0.0234375,-1.0356445,-0.010642252,0.015963377,0.13834926,189.6,38.7,-25.800001,43.285294,-193.80473,0.0,1,0,0,3.9316397,3.0350957,false,0.0
18903,-0.0073242188,-0.0234375,-1.0356445,-0.010642252,0.015963377,0.13834926,189.6,38.7,-25.800001,43.285294,-193.80473,0.0,1,0,0,3.9316397,3.0350957,false,0.0
18903,-0.0073242188,-0.0234375,-1.0356445,-0.010642252,0.015963377,0.13834926,189.6,38.7,-25.800001,43.285294,-193.80473,0.0,1,0,0,3.9316397,3.0350957,false,0.0
18903,-0.0073242188,-0.0234375,-1.0356445,-0.010642252,0.015963377,0.13834926,189.6,38.7,-25.800001,43.285294,-193.80473,0.0,1,0,0,3.9316397,3.0350957,false,0.0
18903,-0.0073242188,-0.0234375,-1.0356445,-0.010642252,0.015963377,0.13834926,189.6,38.7,-25.800001,43.285294,-193.80473,0.0,1,0,0,3.9316397,3.0350957,false,0.0
18903,-0.0073242188,-0.0234375,-1.0356445,-0.010642252,0.015963377,0.13834926,189.6,38.7,-25.800001,43.285294,-193.80473,0.0,1,0,0,3.9316397,3.0350957,false,0.0
18903,-0.0073242188,-0.0234375,-1.0356445,-0.010642252,0.015963377,0.13834926,189.6,38.7,-25.800001,43.285294,-193.80473,0.0,1,0,0,3.9316397,3.0350957,false,0.0
18903,-0.0073242188,-0.0234375,-1.0356445,-0.010642252,0.015963377,0.13834926,189.6,38.7,-25.800001,43.285294,-193.80473,0.0,1,0,0,3.9316397,3.0350957,false,0.0
18903,-0.0073242188,-0.0234375,-1.0356445,-0.010642252,0.015963377,0.13834926,189.6,38.7,-25.800001,43.285294,-193.80473,0.0,1,0,0,3.9316397,3.0350957,false,0.0
18903,-0.0073242188,-0.0234375,-1.0356445,-0.010642252,0.015963377,0.13834926,189.6,38.7,-25.800001,43.285294,-193.80473,0.0,1,0,0,3.9316397,3.0350957,false,0.0
18903,-0.0073242188,-0.0234375,-1.0356445,-0.010642252,0.015963377,0.13834926,189.6,38.7,-25.800001,43.285294,-193.80473,0.0,1,0,0,3.9316397,3.0350957,false,0.0
18903,-0.0073242188,-0.0234375,-1.0356445,-0.010642252,0.015963377,0.13834926,189.6,38.7,-25.800001,43.285294,-193.80473,0.0,1,0,0,3.9316397,3.0350957,false,0.0
18903,-0.0073242188,-0.0234375,-1.0356445,-0.010642252,0.015963377,0.13834926,189.6,38.7,-25.800001,43.285294,-193.80473,0.0,1,0,0,3.9316397,3.0350957,false,0.0
18903,-0.0073242188,-0.0234375,-1.0356445,-0.010642252,0.015963377,0.13834926,189.6,38.7,-25.800001,43.285294,-193.80473,0.0,1,0,0,3.9316397,3.0350957,false,0.0
18903,-0.0073242188,-0.0234375,-1.0356445,-0.010642252,0.015963377,0.13834926,189.6,38.7,-25.800001,43.285294,-193.80473,0.0,1,0,0,3.9316397,3.0350957,false,0.0
18903,-0.0073242188,-0.0234375,-1.0356445,-0.010642252,0.015963377,0.13834926,189.6,38.7,-25.800001,43.285294,-193.80473,0.0,1,0,0,3.9316397,3.0350957,false,0.0
18903,-0.0073242188,-0.0234375,-1.0356445,-0.010642252,0.015963377,0.13834926,189.6,38.7,-25.800001,43.285294,-193.80473,0.0,1,0,0,3.9316397,3.0350957,false,0.0
18903,-0.0073242188,-0.0234375,-1.0356445,-0.010642252,0.015963377,0.13834926,189.6,38.7,-25.800001,43.285294,-193.80473,0.0,1,0,0,3.9316397,3.0350957,false,0.0
18903,-0.0073242188,-0.0234375,-1.0356445,-0.010642252,0.015963377,0.13834926,189.6,38.7,-25.800001,43.285294,-193.80473,0.0,1,0,0,3.9316397,3.0350957,false,0.0
18903,-0.0073242188,-0.0234375,-1.0356445,-0.010642252,0.015963377,0.13834926,189.6,38.7,-25.800001,43.285294,-193.80473,0.0,1,0,0,3.9316397,3.0350957,false,0.0
18903,-0.0073242188,-0.0234375,-1.0356445,-0.010642252,0.015963377,0.13834926,189.6,38.7,-25.800001,43.285294,-193.80473,0.0,1,0,0,3.9316397,3.0350957,false,0.0
18904,-0.0073242188,-0.0234375,-1.0356445,-0.010642252,0.015963377,0.13834926,189.6,38.7,-25.800001,43.285294,-193.80473,0.0,1,0,0,3.9316397,3.0350957,false,0.0
18904,-0.0073242188,-0.0234375,-1.0356445,-0.010642252,0.015963377,0.13834926,189.6,38.7,-25.800001,43.285294,-193.80473,0.0,1,0,0,3.9316397,3.0350957,false,0.0
18904,-0.0073242188,-0.0234375,-1.0356445,-0.010642252,0.015963377,0.13834926,189.6,38.7,-25.800001,43.285294,-193.80473,0.0,1,0,0,3.9316397,3.0350957,false,0.0
18904,-0.0073242188,-0.0234375,-1.0356445,-0.010642252,0.015963377,0.13834926,189.6,38.7,-25.800001,43.285294,-193.80473,0.0,1,0,0,3.9316397,3.0350957,false,0.0
18904,-0.0073242188,-0.0234375,-1.0356445,-0.010642252,0.015963377,0.13834926,189.6,38.7,-25.800001,43.285294,-193.80473,0.0,1,0,0,3.9316397,3.0350957,false,0.0
18904,-0.0073242188,-0.0234375,-1.0356445,-0.010642252,0.015963377,0.13834926,189.6,38.7,-25.800001,43.285294,-193.80473,0.0,1,0,0,3.9316397,3.0350957,false,0.0
18904,-0.0073242188,-0.0234375,-1.0356445,-0.010642252,0.015963377,0.13834926,189.6,38.7,-25.800001,43.285294,-193.80473,0.0,1,0,0,3.9316397,3.0350957,false,0.0
18904,-0.0073242188,-0.0234375,-1.0356445,-0.010642252,0.015963377,0.13834926,189.6,38.7,-25.800001,43.285294,-193.80473,0.0,1,0,0,3.9316397,3.0350957,false,0.0
18904,-0.0073242188,-0.0234375,-1.0356445,-0.010642252,0.015963377,0.13834926,189.6,38.7,-25.800001,43.285294,-193.80473,0.0,1,0,0,3.9316397,3.0350957,false,0.0
18904,-0.0073242188,-0.0234375,-1.0356445,-0.010642252,0.015963377,0.13834926,189.6,38.7,-25.800001,43.285294,-193.80473,0.0,1,0,0,3.9316397,3.0350957,false,0.0
18904,-0.0073242188,-0.0234375,-1.0356445,-0.010642252,0.015963377,0.13834926,189.6,38.7,-25.800001,43.285294,-193.80473,0.0,1,0,0,3.9316397,3.0350957,false,0.0
18904,-0.0073242188,-0.0234375,-1.0356445,-0.010642252,0.015963377,0.13834926,189.6,38.7,-25.800001,43.285294,-193.80473,0.0,1,0,0,3.9316397,3.0350957,false,0.0
18904,-0.0073242188,-0.0234375,-1.0356445,-0.010642252,0.015963377,0.13834926,189.6,38.7,-25.800001,43.285294,-193.80473,0.0,1,0,0,3.9316397,3.0350957,false,0.0
18904,-0.0073242188,-0.0234375,-1.0356445,-0.010642252,0.015963377,0.13834926,189.6,38.7,-25.800001,43.285294,-193.80473,0.0,1,0,0,3.9316397,3.0350957,false,0.0
18904,-0.0073242188,-0.0234375,-1.0356445,-0.010642252,0.015963377,0.13834926,189.6,38.7,-25.800001,43.285294,-193.80473,0.0,1,0,0,3.9316397,3.0350957,false,0.0
18904,-0.0073242188,-0.0234375,-1.0356445,-0.010642252,0.015963377,0.13834926,189.6,38.7,-25.800001,43.285294,-193.80473,0.0,1,0,0,3.9316397,3.0350957,false,0.0
18904,-0.0073242188,-0.0234375,-1.0356445,-0.010642252,0.015963377,0.13834926,189.6,38.7,-25.800001,43.285294,-193.80473,0.0,1,0,0,3.9316397,3.0350957,false,0.0
18904,-0.0073242188,-0.0234375,-1.0356445,-0.010642252,0.015963377,0.13834926,189.6,38.7,-25.800001,43.285294,-193.80473,0.0,1,0,0,3.9316397,3.0350957,false,0.0
18904,-0.0073242188,-0.0234375,-1.0356445,-0.010642252,0.015963377,0.13834926,189.6,38.7,-25.800001,43.285294,-193.80473,0.0,1,0,0,3.9316397,3.0350957,false,0.0
18904,-0.0073242188,-0.0234375,-1.0356445,-0.010642252,0.015963377,0.13834926,189.6,38.7,-25.800001,43.285294,-193.80473,0.0,1,0,0,3.9316397,3.0350957,false,0.0
18904,-0.0078125,-0.019042969,-1.0366211,-0.007449576,0.015963377,0.14047772,186.90001,33.9,-26.7,43.29706,-193.80473,0.0,1,0,0,3.9198902,3.0468452,false,0.0
18963,-0.0078125,-0.019042969,-1.0366211,-0.007449576,0.015963377,0.14047772,186.90001,33.9,-26.7,43.29706,-193.80473,0.0,1,0,0,3.9198902,3.0468452,false,0.0
18963,-0.0078125,-0.019042969,-1.0366211,-0.007449576,0.015963377,0.14047772,186.90001,33.9,-26.7,43.29706,-193.80473,0.0,1,0,0,3.9198902,3.0468452,false,0.0
18963,-0.0078125,-0.019042969,-1.0366211,-0.007449576,0.015963377,0.14047772,186.90001,33.9,-26.7,43.29706,-193.80473,0.0,1,0,0,3.9198902,3.0468452,false,0.0
18963,-0.0078125,-0.019042969,-1.0366211,-0.007449576,0.015963377,0.14047772,186.90001,33.9,-26.7,43.29706,-193.80473,0.0,1,0,0,3.9198902,3.0468452,false,0.0
18963,-0.0078125,-0.019042969,-1.0366211,-0.007449576,0.015963377,0.14047772,186.90001,33.9,-26.7,43.29706,-193.80473,0.0,1,0,0,3.9198902,3.0468452,false,0.0
18963,-0.0078125,-0.019042969,-1.0366211,-0.007449576,0.015963377,0.14047772,186.90001,33.9,-26.7,43.29706,-193.80473,0.0,1,0,0,3.9198902,3.0468452,false,0.0
18963,-0.0078125,-0.019042969,-1.0366211,-0.007449576,0.015963377,0.14047772,186.90001,33.9,-26.7,43.29706,-193.80473,0.0,1,0,0,3.9198902,3.0468452,false,0.0
18963,-0.0078125,-0.019042969,-1.0366211,-0.007449576,0.015963377,0.14047772,186.90001,33.9,-26.7,43.29706,-193.80473,0.0,1,0,0,3.9198902,3.0468452,false,0.0
18963,-0.0078125,-0.019042969,-1.0366211,-0.007449576,0.015963377,0.14047772,186.90001,33.9,-26.7,43.29706,-193.80473,0.0,1,0,0,3.9198902,3.0468452,false,0.0
18963,-0.0078125,-0.019042969,-1.0366211,-0.007449576,0.015963377,0.14047772,186.90001,33.9,-26.7,43.29706,-193.80473,0.0,1,0,0,3.9198902,3.0468452,false,0.0
18963,-0.0078125,-0.019042969,-1.0366211,-0.007449576,0.015963377,0.14047772,186.90001,33.9,-26.7,43.29706,-193.80473,0.0,1,0,0,3.9198902,3.0468452,false,0.0
18963,-0.0078125,-0.019042969,-1.0366211,-0.007449576,0.015963377,0.14047772,186.90001,33.9,-26.7,43.29706,-193.80473,0.0,1,0,0,3.9198902,3.0468452,false,0.0
18963,-0.0078125,-0.019042969,-1.0366211,-0.007449576,0.015963377,0.14047772,186.90001,33.9,-26.7,43.29706,-193.80473,0.0,1,0,0,3.9198902,3.0468452,false,0.0
18963,-0.0078125,-0.019042969,-1.0366211,-0.007449576,0.015963377,0.14047772,186.90001,33.9,-26.7,43.29706,-193.80473,0.0,1,0,0,3.9198902,3.0468452,false,0.0
18963,-0.0078125,-0.019042969,-1.0366211,-0.007449576,0.015963377,0.14047772,186.90001,33.9,-26.7,43.29706,-193.80473,0.0,1,0,0,3.9198902,3.0468452,false,0.0
18963,-0.0078125,-0.019042969,-1.0366211,-0.007449576,0.015963377,0.14047772,186.90001,33.9,-26.7,43.29706,-193.80473,0.0,1,0,0,3.9198902,3.0468452,false,0.0
18963,-0.0078125,-0.019042969,-1.0366211,-0.007449576,0.015963377,0.14047772,186.90001,33.9,-26.7,43.29706,-193.80473,0.0,1,0,0,3.9198902,3.0468452,false,0.0
18963,-0.0078125,-0.019042969,-1.0366211,-0.007449576,0.015963377,0.14047772,186.90001,33.9,-26.7,43.29706,-193.80473,0.0,1,0,0,3.9198902,3.0468452,false,0.0
18963,-0.0078125,-0.019042969,-1.0366211,-0.007449576,0.015963377,0.14047772,186.90001,33.9,-26.7,43.29706,-193.80473,0.0,1,0,0,3.9198902,3.0468452,false,0.0
18963,-0.0078125,-0.019042969,-1.0366211,-0.007449576,0.015963377,0.14047772,186.90001,33.9,-26.7,43.29706,-193.80473,0.0,1,0,0,3.9198902,3.0468452,false,0.0
18963,-0.0078125,-0.019042969,-1.0366211,-0.007449576,0.015963377,0.14047772,186.90001,33.9,-26.7,43.29706,-193.80473,0.0,1,0,0,3.9198902,3.0468452,false,0.0
18964,-0.0078125,-0.019042969,-1.0366211,-0.007449576,0.015963377,0.14047772,186.90001,33.9,-26.7,43.29706,-193.80473,0.0,1,0,0,3.9198902,3.0468452,false,0.0
18964,-0.0078125,-0.019042969,-1.0366211,-0.007449576,0.015963377,0.14047772,186.90001,33.9,-26.7,43.29706,-193.80473,0.0,1,0,0,3.9198902,3.0468452,false,0.0
18964,-0.0078125,-0.019042969,-1.0366211,-0.007449576,0.015963377,0.14047772,186.90001,33.9,-26.7,43.29706,-193.80473,0.0,1,0,0,3.9198902,3.0468452,false,0.0
18964,-0.0078125,-0.019042969,-1.0366211,-0.007449576,0.015963377,0.14047772,186.90001,33.9,-26.7,43.29706,-193.80473,0.0,1,0,0,3.9198902,3.0468452,false,0.0
18964,-0.0078125,-0.019042969,-1.0366211,-0.007449576,0.015963377,0.14047772,186.90001,33.9,-26.7,43.29706,-193.80473,0.0,1,0,0,3.9198902,3.0468452,false,0.0
18964,-0.0078125,-0.019042969,-1.0366211,-0.007449576,0.015963377,0.14047772,186.90001,33.9,-26.7,43.29706,-193.80473,0.0,1,0,0,3.9198902,3.0468452,false,0.0
18964,-0.0078125,-0.019042969,-1.0366211,-0.007449576,0.015963377,0.14047772,186.90001,33.9,-26.7,43.29706,-193.80473,0.0,1,0,0,3.9198902,3.0468452,false,0.0
18964,-0.0078125,-0.019042969,-1.0366211,-0.007449576,0.015963377,0.14047772,186.90001,33.9,-26.7,43.29706,-193.80473,0.0,1,0,0,3.9198902,3.0468452,false,0.0
18964,-0.0078125,-0.019042969,-1.0366211,-0.007449576,0.015963377,0.14047772,186.90001,33.9,-26.7,43.29706,-193.80473,0.0,1,0,0,3.9198902,3.0468452,false,0.0
18964,-0.0078125,-0.019042969,-1.0366211,-0.007449576,0.015963377,0.14047772,186.90001,33.9,-26.7,43.29706,-193.80473,0.0,1,0,0,3.9198902,3.0468452,false,0.0
18964,-0.0078125,-0.019042969,-1.0366211,-0.007449576,0.015963377,0.14047772,186.90001,33.9,-26.7,43.29706,-193.80473,0.0,1,0,0,3.9198902,3.0468452,false,0.0
18964,-0.0078125,-0.019042969,-1.0366211,-0.007449576,0.015963377,0.14047772,186.90001,33.9,-26.7,43.29706,-193.80473,0.0,1,0,0,3.9198902,3.0468452,false,0.0
18964,-0.0078125,-0.019042969,-1.0366211,-0.007449576,0.015963377,0.14047772,186.90001,33.9,-26.7,43.29706,-193.80473,0.0,1,0,0,3.9198902,3.0468452,false,0.0
18964,-0.0078125,-0.019042969,-1.0366211,-0.007449576,0.015963377,0.14047772,186.90001,33.9,-26.7,43.29706,-193.80473,0.0,1,0,0,3.9198902,3.0468452,false,0.0
18964,-0.0078125,-0.019042969,-1.0366211,-0.007449576,0.015963377,0.14047772,186.90001,33.9,-26.7,43.29706,-193.80473,0.0,1,0,0,3.9198902,3.0468452,false,0.0
18964,-0.0078125,-0.019042969,-1.0366211,-0.007449576,0.015963377,0.14047772,186.90001,33.9,-26.7,43.29706,-193.80473,0.0,1,0,0,3.9198902,3.0468452,false,0.0
18964,-0.0078125,-0.019042969,-1.0366211,-0.007449576,0.015963377,0.14047772,186.90001,33.9,-26.7,43.29706,-193.80473,0.0,1,0,0,3.9198902,3.0468452,false,0.0
18964,-0.0078125,-0.019042969,-1.0366211,-0.007449576,0.015963377,0.14047772,186.90001,33.9,-26.7,43.29706,-193.80473,0.0,1,0,0,3.9198902,3.0468452,false,0.0
18964,-0.0078125,-0.019042969,-1.0366211,-0.007449576,0.015963377,0.14047772,186.90001,33.9,-26.7,43.29706,-193.80473,0.0,1,0,0,3.9198902,3.0468452,false,0.0
18964,-0.0078125,-0.019042969,-1.0366211,-0.007449576,0.015963377,0.14047772,186.90001,33.9,-26.7,43.29706,-193.80473,0.0,1,0,0,3.9198902,3.0468452,false,0.0
18964,-0.0078125,-0.019042969,-1.0366211,-0.007449576,0.015963377,0.14047772,186.90001,33.9,-26.7,43.29706,-193.80473,0.0,1,0,0,3.9198902,3.0468452,false,0.0
18964,-0.0048828125,-0.020996094,-1.0351562,-0.007449576,0.021284504,0.13941349,189.0,36.9,-26.7,43.33235,-193.80473,0.0,1,0,0,3.9257648,3.0468452,false,0.0
19029,-0.0048828125,-0.020996094,-1.0351562,-0.007449576,0.021284504,0.13941349,189.0,36.9,-26.7,43.33235,-193.80473,0.0,1,0,0,3.9257648,3.0468452,false,0.0
19029,-0.0048828125,-0.020996094,-1.0351562,-0.007449576,0.021284504,0.13941349,189.0,36.9,-26.7,43.33235,-193.80473,0.0,1,0,0,3.9257648,3.0468452,false,0.0
19029,-0.0048828125,-0.020996094,-1.0351562,-0.007449576,0.021284504,0.13941349,189.0,36.9,-26.7,43.33235,-193.80473,0.0,1,0,0,3.9257648,3.0468452,false,0.0
19029,-0.0048828125,-0.020996094,-1.0351562,-0.007449576,0.021284504,0.13941349,189.0,36.9,-26.7,43.33235,-193.80473,0.0,1,0,0,3.9257648,3.0468452,false,0.0
19029,-0.0048828125,-0.020996094,-1.0351562,-0.007449576,0.021284504,0.13941349,189.0,36.9,-26.7,43.33235,-193.80473,0.0,1,0,0,3.9257648,3.0468452,false,0.0
19029,-0.0048828125,-0.020996094,-1.0351562,-0.007449576,0.021284504,0.13941349,189.0,36.9,-26.7,43.33235,-193.80473,0.0,1,0,0,3.9257648,3.0468452,false,0.0
19029,-0.0048828125,-0.020996094,-1.0351562,-0.007449576,0.021284504,0.13941349,189.0,36.9,-26.7,43.33235,-193.80473,0.0,1,0,0,3.9257648,3.0468452,false,0.0
19029,-0.0048828125,-0.020996094,-1.0351562,-0.007449576,0.021284504,0.13941349,189.0,36.9,-26.7,43.33235,-193.80473,0.0,1,0,0,3.9257648,3.0468452,false,0.0
19029,-0.0048828125,-0.020996094,-1.0351562,-0.007449576,0.021284504,0.13941349,189.0,36.9,-26.7,43.33235,-193.80473,0.0,1,0,0,3.9257648,3.0468452,false,0.0
19030,-0.0048828125,-0.020996094,-1.0351562,-0.007449576,0.021284504,0.13941349,189.0,36.9,-26.7,43.33235,-193.80473,0.0,1,0,0,3.9257648,3.0468452,false,0.0
19030,-0.0048828125,-0.020996094,-1.0351562,-0.007449576,0.021284504,0.13941349,189.0,36.9,-26.7,43.33235,-193.80473,0.0,1,0,0,3.9257648,3.0468452,false,0.0
19030,-0.0048828125,-0.020996094,-1.0351562,-0.007449576,0.021284504,0.13941349,189.0,36.9,-26.7,43.33235,-193.80473,0.0,1,0,0,3.9257648,3.0468452,false,0.0
19030,-0.0048828125,-0.020996094,-1.0351562,-0.007449576,0.021284504,0.13941349,189.0,36.9,-26.7,43.33235,-193.80473,0.0,1,0,0,3.9257648,3.0468452,false,0.0
19030,-0.0048828125,-0.020996094,-1.0351562,-0.007449576,0.021284504,0.13941349,189.0,36.9,-26.7,43.33235,-193.80473,0.0,1,0,0,3.9257648,3.0468452,false,0.0
19030,-0.0048828125,-0.020996094,-1.0351562,-0.007449576,0.021284504,0.13941349,189.0,36.9,-26.7,43.33235,-193.80473,0.0,1,0,0,3.9257648,3.0468452,false,0.0
19030,-0.0048828125,-0.020996094,-1.0351562,-0.007449576,0.021284504,0.13941349,189.0,36.9,-26.7,43.33235,-193.80473,0.0,1,0,0,3.9257648,3.0468452,false,0.0
19030,-0.0048828125,-0.020996094,-1.0351562,-0.007449576,0.021284504,0.13941349,189.0,36.9,-26.7,43.33235,-193.80473,0.0,1,0,0,3.9257648,3.0468452,false,0.0
19030,-0.0048828125,-0.020996094,-1.0351562,-0.007449576,0.021284504,0.13941349,189.0,36.9,-26.7,43.33235,-193.80473,0.0,1,0,0,3.9257648,3.0468452,false,0.0
19030,-0.0048828125,-0.020996094,-1.0351562,-0.007449576,0.021284504,0.13941349,189.0,36.9,-26.7,43.33235,-193.80473,0.0,1,0,0,3.9257648,3.0468452,false,0.0
19030,-0.0048828125,-0.020996094,-1.0351562,-0.007449576,0.021284504,0.13941349,189.0,36.9,-26.7,43.33235,-193.80473,0.0,1,0,0,3.9257648,3.0468452,false,0.0
19030,-0.0048828125,-0.020996094,-1.0351562,-0.007449576,0.021284504,0.13941349,189.0,36.9,-26.7,43.33235,-193.80473,0.0,1,0,0,3.9257648,3.0468452,false,0.0
19030,-0.0048828125,-0.020996094,-1.0351562,-0.007449576,0.021284504,0.13941349,189.0,36.9,-26.7,43.33235,-193.80473,0.0,1,0,0,3.9257648,3.0468452,false,0.0
19031,-0.0048828125,-0.020996094,-1.0351562,-0.007449576,0.021284504,0.13941349,189.0,36.9,-26.7,43.33235,-193.80473,0.0,1,0,0,3.9257648,3.0468452,false,0.0
19031,-0.0048828125,-0.020996094,-1.0351562,-0.007449576,0.021284504,0.13941349,189.0,36.9,-26.7,43.33235,-193.80473,0.0,1,0,0,3.9257648,3.0468452,false,0.0
19031,-0.0048828125,-0.020996094,-1.0351562,-0.007449576,0.021284504,0.13941349,189.0,36.9,-26.7,43.33235,-193.80473,0.0,1,0,0,3.9257648,3.0468452,false,0.0
19031,-0.0048828125,-0.020996094,-1.0351562,-0.007449576,0.021284504,0.13941349,189.0,36.9,-26.7,43.33235,-193.80473,0.0,1,0,0,3.9257648,3.0468452,false,0.0
19031,-0.0048828125,-0.020996094,-1.0351562,-0.007449576,0.021284504,0.13941349,189.0,36.9,-26.7,43.33235,-193.80473,0.0,1,0,0,3.9257648,3.0468452,false,0.0
19031,-0.0048828125,-0.020996094,-1.0351562,-0.007449576,0.021284504,0.13941349,189.0,36.9,-26.7,43.33235,-193.80473,0.0,1,0,0,3.9257648,3.0468452,false,0.0
19031,-0.0048828125,-0.020996094,-1.0351562,-0.007449576,0.021284504,0.13941349,189.0,36.9,-26.7,43.33235,-193.80473,0.0,1,0,0,3.9257648,3.0468452,false,0.0
19031,-0.0048828125,-0.020996094,-1.0351562,-0.007449576,0.021284504,0.13941349,189.0,36.9,-26.7,43.33235,-193.80473,0.0,1,0,0,3.9257648,3.0468452,false,0.0
19031,-0.0048828125,-0.020996094,-1.0351562,-0.007449576,0.021284504,0.13941349,189.0,36.9,-26.7,43.33235,-193.80473,0.0,1,0,0,3.9257648,3.0468452,false,0.0
19031,-0.0048828125,-0.020996094,-1.0351562,-0.007449576,0.021284504,0.13941349,189.0,36.9,-26.7,43.33235,-193.80473,0.0,1,0,0,3.9257648,3.0468452,false,0.0
19031,-0.0048828125,-0.020996094,-1.0351562,-0.007449576,0.021284504,0.13941349,189.0,36.9,-26.7,43.33235,-193.80473,0.0,1,0,0,3.9257648,3.0468452,false,0.0
19031,-0.0048828125,-0.020996094,-1.0351562,-0.007449576,0.021284504,0.13941349,189.0,36.9,-26.7,43.33235,-193.80473,0.0,1,0,0,3.9257648,3.0468452,false,0.0
19031,-0.0048828125,-0.020996094,-1.0351562,-0.007449576,0.021284504,0.13941349,189.0,36.9,-26.7,43.33235,-193.80473,0.0,1,0,0,3.9257648,3.0468452,false,0.0
19031,-0.0048828125,-0.020996094,-1.0351562,-0.007449576,0.021284504,0.13941349,189.0,36.9,-26.7,43.33235,-193.80473,0.0,1,0,0,3.9257648,3.0468452,false,0.0
19031,-0.0048828125,-0.020996094,-1.0351562,-0.007449576,0.021284504,0.13941349,189.0,36.9,-26.7,43.33235,-193.80473,0.0,1,0,0,3.9257648,3.0468452,false,0.0
19031,-0.0048828125,-0.020996094,-1.0351562,-0.007449576,0.021284504,0.13941349,189.0,36.9,-26.7,43.33235,-193.80473,0.0,1,0,0,3.9257648,3.0468452,false,0.0
19031,-0.0048828125,-0.020996094,-1.0351562,-0.007449576,0.021284504,0.13941349,189.0,36.9,-26.7,43.33235,-193.80473,0.0,1,0,0,3.9257648,3.0468452,false,0.0
19031,-0.0048828125,-0.020996094,-1.0351562,-0.007449576,0.021284504,0.13941349,189.0,36.9,-26.7,43.33235,-193.80473,0.0,1,0,0,3.9257648,3.0468452,false,0.0
19031,-0.0048828125,-0.020996094,-1.0351562,-0.007449576,0.021284504,0.13941349,189.0,36.9,-26.7,43.33235,-193.80473,0.0,1,0,0,3.9257648,3.0468452,false,0.0
19031,-0.0048828125,-0.020996094,-1.0351562,-0.007449576,0.021284504,0.13941349,189.0,36.9,-26.7,43.33235,-193.80473,0.0,1,0,0,3.9257648,3.0468452,false,0.0
19031,-0.008300781,-0.020996094,-1.034668,-0.007449576,0.018091828,0.13834926,187.8,34.800003,-27.6,43.30588,-193.80473,0.0,1,0,0,3.9023423,3.0350957,false,0.0
19085,-0.008300781,-0.020996094,-1.034668,-0.007449576,0.018091828,0.13834926,187.8,34.800003,-27.6,43.30588,-193.80473,0.0,1,0,0,3.9023423,3.0350957,false,0.0
19085,-0.008300781,-0.020996094,-1.034668,-0.007449576,0.018091828,0.13834926,187.8,34.800003,-27.6,43.30588,-193.80473,0.0,1,0,0,3.9023423,3.0350957,false,0.0
19085,-0.008300781,-0.020996094,-1.034668,-0.007449576,0.018091828,0.13834926,187.8,34.800003,-27.6,43.30588,-193.80473,0.0,1,0,0,3.9023423,3.0350957,false,0.0
19085,-0.008300781,-0.020996094,-1.034668,-0.007449576,0.018091828,0.13834926,187.8,34.800003,-27.6,43.30588,-193.80473,0.0,1,0,0,3.9023423,3.0350957,false,0.0
19085,-0.008300781,-0.020996094,-1.034668,-0.007449576,0.018091828,0.13834926,187.8,34.800003,-27.6,43.30588,-193.80473,0.0,1,0,0,3.9023423,3.0350957,false,0.0
19085,-0.008300781,-0.020996094,-1.034668,-0.007449576,0.018091828,0.13834926,187.8,34.800003,-27.6,43.30588,-193.80473,0.0,1,0,0,3.9023423,3.0350957,false,0.0
19085,-0.008300781,-0.020996094,-1.034668,-0.007449576,0.018091828,0.13834926,187.8,34.800003,-27.6,43.30588,-193.80473,0.0,1,0,0,3.9023423,3.0350957,false,0.0
19085,-0.008300781,-0.020996094,-1.034668,-0.007449576,0.018091828,0.13834926,187.8,34.800003,-27.6,43.30588,-193.80473,0.0,1,0,0,3.9023423,3.0350957,false,0.0
19085,-0.008300781,-0.020996094,-1.034668,-0.007449576,0.018091828,0.13834926,187.8,34.800003,-27.6,43.30588,-193.80473,0.0,1,0,0,3.9023423,3.0350957,false,0.0
19085,-0.008300781,-0.020996094,-1.034668,-0.007449576,0.018091828,0.13834926,187.8,34.800003,-27.6,43.30588,-193.80473,0.0,1,0,0,3.9023423,3.0350957,false,0.0
19085,-0.008300781,-0.020996094,-1.034668,-0.007449576,0.018091828,0.13834926,187.8,34.800003,-27.6,43.30588,-193.80473,0.0,1,0,0,3.9023423,3.0350957,false,0.0
19085,-0.008300781,-0.020996094,-1.034668,-0.007449576,0.018091828,0.13834926,187.8,34.800003,-27.6,43.30588,-193.80473,0.0,1,0,0,3.9023423,3.0350957,false,0.0
19085,-0.008300781,-0.020996094,-1.034668,-0.007449576,0.018091828,0.13834926,187.8,34.800003,-27.6,43.30588,-193.80473,0.0,1,0,0,3.9023423,3.0350957,false,0.0
19085,-0.008300781,-0.020996094,-1.034668,-0.007449576,0.018091828,0.13834926,187.8,34.800003,-27.6,43.30588,-193.80473,0.0,1,0,0,3.9023423,3.0350957,false,0.0
19085,-0.008300781,-0.020996094,-1.034668,-0.007449576,0.018091828,0.13834926,187.8,34.800003,-27.6,43.30588,-193.80473,0.0,1,0,0,3.9023423,3.0350957,false,0.0
19085,-0.008300781,-0.020996094,-1.034668,-0.007449576,0.018091828,0.13834926,187.8,34.800003,-27.6,43.30588,-193.80473,0.0,1,0,0,3.9023423,3.0350957,false,0.0
19085,-0.008300781,-0.020996094,-1.034668,-0.007449576,0.018091828,0.13834926,187.8,34.800003,-27.6,43.30588,-193.80473,0.0,1,0,0,3.9023423,3.0350957,false,0.0
19085,-0.008300781,-0.020996094,-1.034668,-0.007449576,0.018091828,0.13834926,187.8,34.800003,-27.6,43.30588,-193.80473,0.0,1,0,0,3.9023423,3.0350957,false,0.0
19085,-0.008300781,-0.020996094,-1.034668,-0.007449576,0.018091828,0.13834926,187.8,34.800003,-27.6,43.30588,-193.80473,0.0,1,0,0,3.9023423,3.0350957,false,0.0
19085,-0.008300781,-0.020996094,-1.034668,-0.007449576,0.018091828,0.13834926,187.8,34.800003,-27.6,43.30588,-193.80473,0.0,1,0,0,3.9023423,3.0350957,false,0.0
19085,-0.008300781,-0.020996094,-1.034668,-0.007449576,0.018091828,0.13834926,187.8,34.800003,-27.6,43.30588,-193.80473,0.0,1,0,0,3.9023423,3.0350957,false,0.0
19085,-0.008300781,-0.020996094,-1.034668,-0.007449576,0.018091828,0.13834926,187.8,34.800003,-27.6,43.30588,-193.80473,0.0,1,0,0,3.9023423,3.0350957,false,0.0
19085,-0.008300781,-0.020996094,-1.034668,-0.007449576,0.018091828,0.13834926,187.8,34.800003,-27.6,43.30588,-193.80473,0.0,1,0,0,3.9023423,3.0350957,false,0.0
19085,-0.008300781,-0.020996094,-1.034668,-0.007449576,0.018091828,0.13834926,187.8,34.800003,-27.6,43.30588,-193.80473,0.0,1,0,0,3.9023423,3.0350957,false,0.0
19085,-0.008300781,-0.020996094,-1.034668,-0.007449576,0.018091828,0.13834926,187.8,34.800003,-27.6,43.30588,-193.80473,0.0,1,0,0,3.9023423,3.0350957,false,0.0
19085,-0.008300781,-0.020996094,-1.034668,-0.007449576,0.018091828,0.13834926,187.8,34.800003,-27.6,43.30588,-193.80473,0.0,1,0,0,3.9023423,3.0350957,false,0.0
19085,-0.008300781,-0.020996094,-1.034668,-0.007449576,0.018091828,0.13834926,187.8,34.800003,-27.6,43.30588,-193.80473,0.0,1,0,0,3.9023423,3.0350957,false,0.0
19085,-0.008300781,-0.020996094,-1.034668,-0.007449576,0.018091828,0.13834926,187.8,34.800003,-27.6,43.30588,-193.80473,0.0,1,0,0,3.9023423,3.0350957,false,0.0
19085,-0.008300781,-0.020996094,-1.034668,-0.007449576,0.018091828,0.13834926,187.8,34.800003,-27.6,43.30588,-193.80473,0.0,1,0,0,3.9023423,3.0350957,false,0.0
19085,-0.008300781,-0.020996094,-1.034668,-0.007449576,0.018091828,0.13834926,187.8,34.800003,-27.6,43.30588,-193.80473,0.0,1,0,0,3.9023423,3.0350957,false,0.0
19085,-0.008300781,-0.020996094,-1.034668,-0.007449576,0.018091828,0.13834926,187.8,34.800003,-27.6,43.30588,-193.80473,0.0,1,0,0,3.9023423,3.0350957,false,0.0
19085,-0.008300781,-0.020996094,-1.034668,-0.007449576,0.018091828,0.13834926,187.8,34.800003,-27.6,43.30588,-193.80473,0.0,1,0,0,3.9023423,3.0350957,false,0.0
19085,-0.008300781,-0.020996094,-1.034668,-0.007449576,0.018091828,0.13834926,187.8,34.800003,-27.6,43.30588,-193.80473,0.0,1,0,0,3.9023423,3.0350957,false,0.0
19086,-0.008300781,-0.020996094,-1.034668,-0.007449576,0.018091828,0.13834926,187.8,34.800003,-27.6,43.30588,-193.80473,0.0,1,0,0,3.9023423,3.0350957,false,0.0
19088,-0.008300781,-0.020996094,-1.034668,-0.007449576,0.018091828,0.13834926,187.8,34.800003,-27.6,43.30588,-193.80473,0.0,1,0,0,3.9023423,3.0350957,false,0.0
19088,-0.008300781,-0.020996094,-1.034668,-0.007449576,0.018091828,0.13834926,187.8,34.800003,-27.6,43.30588,-193.80473,0.0,1,0,0,3.9023423,3.0350957,false,0.0
19088,-0.008300781,-0.020996094,-1.034668,-0.007449576,0.018091828,0.13834926,187.8,34.800003,-27.6,43.30588,-193.80473,0.0,1,0,0,3.9023423,3.0350957,false,0.0
19088,-0.008300781,-0.020996094,-1.034668,-0.007449576,0.018091828,0.13834926,187.8,34.800003,-27.6,43.30588,-193.80473,0.0,1,0,0,3.9023423,3.0350957,false,0.0
19088,-0.008300781,-0.020996094,-1.034668,-0.007449576,0.018091828,0.13834926,187.8,34.800003,-27.6,43.30588,-193.80473,0.0,1,0,0,3.9023423,3.0350957,false,0.0
19088,-0.008300781,-0.020996094,-1.034668,-0.007449576,0.018091828,0.13834926,187.8,34.800003,-27.6,43.30588,-193.80473,0.0,1,0,0,3.9023423,3.0350957,false,0.0
19088,-0.008300781,-0.020996094,-1.034668,-0.007449576,0.018091828,0.13834926,187.8,34.800003,-27.6,43.30588,-193.80473,0.0,1,0,0,3.9023423,3.0350957,false,0.0
19088,-0.008300781,-0.020996094,-1.034668,-0.007449576,0.018091828,0.13834926,187.8,34.800003,-27.6,43.30588,-193.80473,0.0,1,0,0,3.9023423,3.0350957,false,0.0
19088,-0.0053710938,-0.022949219,-1.034668,-0.009578027,0.017027603,0.13834926,188.40001,38.4,-25.500002,43.344116,-193.80473,0.0,1,0,0,3.9198902,3.0409706,false,0.0
19089,-0.0053710938,-0.022949219,-1.034668,-0.009578027,0.017027603,0.13834926,188.40001,38.4,-25.500002,43.344116,-193.80473,0.0,1,0,0,3.9198902,3.0409706,false,0.0
19089,-0.0053710938,-0.022949219,-1.034668,-0.009578027,0.017027603,0.13834926,188.40001,38.4,-25.500002,43.344116,-193.80473,0.0,1,0,0,3.9198902,3.0409706,false,0.0
19089,-0.0053710938,-0.022949219,-1.034668,-0.009578027,0.017027603,0.13834926,188.40001,38.4,-25.500002,43.344116,-193.80473,0.0,1,0,0,3.9198902,3.0409706,false,0.0
19089,-0.0053710938,-0.022949219,-1.034668,-0.009578027,0.017027603,0.13834926,188.40001,38.4,-25.500002,43.344116,-193.80473,0.0,1,0,0,3.9198902,3.0409706,false,0.0
19089,-0.0053710938,-0.022949219,-1.034668,-0.009578027,0.017027603,0.13834926,188.40001,38.4,-25.500002,43.344116,-193.80473,0.0,1,0,0,3.9198902,3.0409706,false,0.0
19089,-0.0053710938,-0.022949219,-1.034668,-0.009578027,0.017027603,0.13834926,188.40001,38.4,-25.500002,43.344116,-193.80473,0.0,1,0,0,3.9198902,3.0409706,false,0.0
19089,-0.0053710938,-0.022949219,-1.034668,-0.009578027,0.017027603,0.13834926,188.40001,38.4,-25.500002,43.344116,-193.80473,0.0,1,0,0,3.9198902,3.0409706,false,0.0
19089,-0.0053710938,-0.022949219,-1.034668,-0.009578027,0.017027603,0.13834926,188.40001,38.4,-25.500002,43.344116,-193.80473,0.0,1,0,0,3.9198902,3.0409706,false,0.0
19089,-0.0053710938,-0.022949219,-1.034668,-0.009578027,0.017027603,0.13834926,188.40001,38.4,-25.500002,43.344116,-193.80473,0.0,1,0,0,3.9198902,3.0409706,false,0.0
19089,-0.0053710938,-0.022949219,-1.034668,-0.009578027,0.017027603,0.13834926,188.40001,38.4,-25.500002,43.344116,-193.80473,0.0,1,0,0,3.9198902,3.0409706,false,0.0
19089,-0.0053710938,-0.022949219,-1.034668,-0.009578027,0.017027603,0.13834926,188.40001,38.4,-25.500002,43.344116,-193.80473,0.0,1,0,0,3.9198902,3.0409706,false,0.0
19089,-0.0053710938,-0.022949219,-1.034668,-0.009578027,0.017027603,0.13834926,188.40001,38.4,-25.500002,43.344116,-193.80473,0.0,1,0,0,3.9198902,3.0409706,false,0.0
19089,-0.0053710938,-0.022949219,-1.034668,-0.009578027,0.017027603,0.13834926,188.40001,38.4,-25.500002,43.344116,-193.80473,0.0,1,0,0,3.9198902,3.0409706,false,0.0
19089,-0.0053710938,-0.022949219,-1.034668,-0.009578027,0.017027603,0.13834926,188.40001,38.4,-25.500002,43.344116,-193.80473,0.0,1,0,0,3.9198902,3.0409706,false,0.0
19089,-0.0053710938,-0.022949219,-1.034668,-0.009578027,0.017027603,0.13834926,188.40001,38.4,-25.500002,43.344116,-193.80473,0.0,1,0,0,3.9198902,3.0409706,false,0.0
19089,-0.0053710938,-0.022949219,-1.034668,-0.009578027,0.017027603,0.13834926,188.40001,38.4,-25.500002,43.344116,-193.80473,0.0,1,0,0,3.9198902,3.0409706,false,0.0
19089,-0.0053710938,-0.022949219,-1.034668,-0.009578027,0.017027603,0.13834926,188.40001,38.4,-25.500002,43.344116,-193.80473,0.0,1,0,0,3.9198902,3.0409706,false,0.0
19089,-0.0053710938,-0.022949219,-1.034668,-0.009578027,0.017027603,0.13834926,188.40001,38.4,-25.500002,43.344116,-193.80473,0.0,1,0,0,3.9198902,3.0409706,false,0.0
19089,-0.0053710938,-0.022949219,-1.034668,-0.009578027,0.017027603,0.13834926,188.40001,38.4,-25.500002,43.344116,-193.80473,0.0,1,0,0,3.9198902,3.0409706,false,0.0
19089,-0.0053710938,-0.022949219,-1.034668,-0.009578027,0.017027603,0.13834926,188.40001,38.4,-25.500002,43.344116,-193.80473,0.0,1,0,0,3.9198902,3.0409706,false,0.0
19089,-0.0053710938,-0.022949219,-1.034668,-0.009578027,0.017027603,0.13834926,188.40001,38.4,-25.500002,43.344116,-193.80473,0.0,1,0,0,3.9198902,3.0409706,false,0.0
19089,-0.0053710938,-0.022949219,-1.034668,-0.009578027,0.017027603,0.13834926,188.40001,38.4,-25.500002,43.344116,-193.80473,0.0,1,0,0,3.9198902,3.0409706,false,0.0
19090,-0.0053710938,-0.022949219,-1.034668,-0.009578027,0.017027603,0.13834926,188.40001,38.4,-25.500002,43.344116,-193.80473,0.0,1,0,0,3.9198902,3.0409706,false,0.0
19090,-0.0053710938,-0.022949219,-1.034668,-0.009578027,0.017027603,0.13834926,188.40001,38.4,-25.500002,43.344116,-193.80473,0.0,1,0,0,3.9198902,3.0409706,false,0.0
19090,-0.0053710938,-0.022949219,-1.034668,-0.009578027,0.017027603,0.13834926,188.40001,38.4,-25.500002,43.344116,-193.80473,0.0,1,0,0,3.9198902,3.0409706,false,0.0
19090,-0.0053710938,-0.022949219,-1.034668,-0.009578027,0.017027603,0.13834926,188.40001,38.4,-25.500002,43.344116,-193.80473,0.0,1,0,0,3.9198902,3.0409706,false,0.0
19090,-0.0053710938,-0.022949219,-1.034668,-0.009578027,0.017027603,0.13834926,188.40001,38.4,-25.500002,43.344116,-193.80473,0.0,1,0,0,3.9198902,3.0409706,false,0.0
19090,-0.0053710938,-0.022949219,-1.034668,-0.009578027,0.017027603,0.13834926,188.40001,38.4,-25.500002,43.344116,-193.80473,0.0,1,0,0,3.9198902,3.0409706,false,0.0
19090,-0.0053710938,-0.022949219,-1.034668,-0.009578027,0.017027603,0.13834926,188.40001,38.4,-25.500002,43.344116,-193.80473,0.0,1,0,0,3.9198902,3.0409706,false,0.0
19090,-0.0053710938,-0.022949219,-1.034668,-0.009578027,0.017027603,0.13834926,188.40001,38.4,-25.500002,43.344116,-193.80473,0.0,1,0,0,3.9198902,3.0409706,false,0.0
19090,-0.0053710938,-0.022949219,-1.034668,-0.009578027,0.017027603,0.13834926,188.40001,38.4,-25.500002,43.344116,-193.80473,0.0,1,0,0,3.9198902,3.0409706,false,0.0
19090,-0.0053710938,-0.022949219,-1.034668,-0.009578027,0.017027603,0.13834926,188.40001,38.4,-25.500002,43.344116,-193.80473,0.0,1,0,0,3.9198902,3.0409706,false,0.0
19090,-0.0053710938,-0.022949219,-1.034668,-0.009578027,0.017027603,0.13834926,188.40001,38.4,-25.500002,43.344116,-193.80473,0.0,1,0,0,3.9198902,3.0409706,false,0.0
19090,-0.0053710938,-0.022949219,-1.034668,-0.009578027,0.017027603,0.13834926,188.40001,38.4,-25.500002,43.344116,-193.80473,0.0,1,0,0,3.9198902,3.0409706,false,0.0
19090,-0.0053710938,-0.022949219,-1.034668,-0.009578027,0.017027603,0.13834926,188.40001,38.4,-25.500002,43.344116,-193.80473,0.0,1,0,0,3.9198902,3.0409706,false,0.0
19090,-0.0053710938,-0.022949219,-1.034668,-0.009578027,0.017027603,0.13834926,188.40001,38.4,-25.500002,43.344116,-193.80473,0.0,1,0,0,3.9198902,3.0409706,false,0.0
19090,-0.0053710938,-0.022949219,-1.034668,-0.009578027,0.017027603,0.13834926,188.40001,38.4,-25.500002,43.344116,-193.80473,0.0,1,0,0,3.9198902,3.0409706,false,0.0
19090,-0.0053710938,-0.022949219,-1.034668,-0.009578027,0.017027603,0.13834926,188.40001,38.4,-25.500002,43.344116,-193.80473,0.0,1,0,0,3.9198902,3.0409706,false,0.0
19090,-0.0053710938,-0.022949219,-1.034668,-0.009578027,0.017027603,0.13834926,188.40001,38.4,-25.500002,43.344116,-193.80473,0.0,1,0,0,3.9198902,3.0409706,false,0.0
19090,-0.0053710938,-0.022949219,-1.034668,-0.009578027,0.017027603,0.13834926,188.40001,38.4,-25.500002,43.344116,-193.80473,0.0,1,0,0,3.9198902,3.0409706,false,0.0
19090,-0.0053710938,-0.022949219,-1.034668,-0.009578027,0.017027603,0.13834926,188.40001,38.4,-25.500002,43.344116,-193.80473,0.0,1,0,0,3.9198902,3.0409706,false,0.0
19090,-0.0053710938,-0.022949219,-1.034668,-0.009578027,0.017027603,0.13834926,188.40001,38.4,-25.500002,43.344116,-193.80473,0.0,1,0,0,3.9198902,3.0409706,false,0.0
19090,-0.0073242188,-0.023925781,-1.0361328,-0.006385351,0.019156054,0.13941349,187.8,36.0,-30.300001,43.3,-193.80473,0.0,1,0,0,3.9257648,3.0468452,false,0.0
19153,-0.0073242188,-0.023925781,-1.0361328,-0.006385351,0.019156054,0.13941349,187.8,36.0,-30.300001,43.3,-193.80473,0.0,1,0,0,3.9257648,3.0468452,false,0.0
19153,-0.0073242188,-0.023925781,-1.0361328,-0.006385351,0.019156054,0.13941349,187.8,36.0,-30.300001,43.3,-193.80473,0.0,1,0,0,3.9257648,3.0468452,false,0.0
19153,-0.0073242188,-0.023925781,-1.0361328,-0.006385351,0.019156054,0.13941349,187.8,36.0,-30.300001,43.3,-193.80473,0.0,1,0,0,3.9257648,3.0468452,false,0.0
19153,-0.0073242188,-0.023925781,-1.0361328,-0.006385351,0.019156054,0.13941349,187.8,36.0,-30.300001,43.3,-193.80473,0.0,1,0,0,3.9257648,3.0468452,false,0.0
19153,-0.0073242188,-0.023925781,-1.0361328,-0.006385351,0.019156054,0.13941349,187.8,36.0,-30.300001,43.3,-193.80473,0.0,1,0,0,3.9257648,3.0468452,false,0.0
19154,-0.0073242188,-0.023925781,-1.0361328,-0.006385351,0.019156054,0.13941349,187.8,36.0,-30.300001,43.3,-193.80473,0.0,1,0,0,3.9257648,3.0468452,false,0.0
19154,-0.0073242188,-0.023925781,-1.0361328,-0.006385351,0.019156054,0.13941349,187.8,36.0,-30.300001,43.3,-193.80473,0.0,1,0,0,3.9257648,3.0468452,false,0.0
19154,-0.0073242188,-0.023925781,-1.0361328,-0.006385351,0.019156054,0.13941349,187.8,36.0,-30.300001,43.3,-193.80473,0.0,1,0,0,3.9257648,3.0468452,false,0.0
19154,-0.0073242188,-0.023925781,-1.0361328,-0.006385351,0.019156054,0.13941349,187.8,36.0,-30.300001,43.3,-193.80473,0.0,1,0,0,3.9257648,3.0468452,false,0.0
19154,-0.0073242188,-0.023925781,-1.0361328,-0.006385351,0.019156054,0.13941349,187.8,36.0,-30.300001,43.3,-193.80473,0.0,1,0,0,3.9257648,3.0468452,false,0.0
19154,-0.0073242188,-0.023925781,-1.0361328,-0.006385351,0.019156054,0.13941349,187.8,36.0,-30.300001,43.3,-193.80473,0.0,1,0,0,3.9257648,3.0468452,false,0.0
19154,-0.0073242188,-0.023925781,-1.0361328,-0.006385351,0.019156054,0.13941349,187.8,36.0,-30.300001,43.3,-193.80473,0.0,1,0,0,3.9257648,3.0468452,false,0.0
19154,-0.0073242188,-0.023925781,-1.0361328,-0.006385351,0.019156054,0.13941349,187.8,36.0,-30.300001,43.3,-193.80473,0.0,1,0,0,3.9257648,3.0468452,false,0.0
19154,-0.0073242188,-0.023925781,-1.0361328,-0.006385351,0.019156054,0.13941349,187.8,36.0,-30.300001,43.3,-193.80473,0.0,1,0,0,3.9257648,3.0468452,false,0.0
19154,-0.0073242188,-0.023925781,-1.0361328,-0.006385351,0.019156054,0.13941349,187.8,36.0,-30.300001,43.3,-193.80473,0.0,1,0,0,3.9257648,3.0468452,false,0.0
19154,-0.0073242188,-0.023925781,-1.0361328,-0.006385351,0.019156054,0.13941349,187.8,36.0,-30.300001,43.3,-193.80473,0.0,1,0,0,3.9257648,3.0468452,false,0.0
19154,-0.0073242188,-0.023925781,-1.0361328,-0.006385351,0.019156054,0.13941349,187.8,36.0,-30.300001,43.3,-193.80473,0.0,1,0,0,3.9257648,3.0468452,false,0.0
19154,-0.0073242188,-0.023925781,-1.0361328,-0.006385351,0.019156054,0.13941349,187.8,36.0,-30.300001,43.3,-193.80473,0.0,1,0,0,3.9257648,3.0468452,false,0.0
19154,-0.0073242188,-0.023925781,-1.0361328,-0.006385351,0.019156054,0.13941349,187.8,36.0,-30.300001,43.3,-193.80473,0.0,1,0,0,3.9257648,3.0468452,false,0.0
19154,-0.0073242188,-0.023925781,-1.0361328,-0.006385351,0.019156054,0.13941349,187.8,36.0,-30.300001,43.3,-193.80473,0.0,1,0,0,3.9257648,3.0468452,false,0.0
19154,-0.0073242188,-0.023925781,-1.0361328,-0.006385351,0.019156054,0.13941349,187.8,36.0,-30.300001,43.3,-193.80473,0.0,1,0,0,3.9257648,3.0468452,false,0.0
19154,-0.0073242188,-0.023925781,-1.0361328,-0.006385351,0.019156054,0.13941349,187.8,36.0,-30.300001,43.3,-193.80473,0.0,1,0,0,3.9257648,3.0468452,false,0.0
19154,-0.0073242188,-0.023925781,-1.0361328,-0.006385351,0.019156054,0.13941349,187.8,36.0,-30.300001,43.3,-193.80473,0.0,1,0,0,3.9257648,3.0468452,false,0.0
19154,-0.0073242188,-0.023925781,-1.0361328,-0.006385351,0.019156054,0.13941349,187.8,36.0,-30.300001,43.3,-193.80473,0.0,1,0,0,3.9257648,3.0468452,false,0.0
19154,-0.0073242188,-0.023925781,-1.0361328,-0.006385351,0.019156054,0.13941349,187.8,36.0,-30.300001,43.3,-193.80473,0.0,1,0,0,3.9257648,3.0468452,false,0.0
19154,-0.0073242188,-0.023925781,-1.0361328,-0.006385351,0.019156054,0.13941349,187.8,36.0,-30.300001,43.3,-193.80473,0.0,1,0,0,3.9257648,3.0468452,false,0.0
19154,-0.0073242188,-0.023925781,-1.0361328,-0.006385351,0.019156054,0.13941349,187.8,36.0,-30.300001,43.3,-193.80473,0.0,1,0,0,3.9257648,3.0468452,false,0.0
19154,-0.0073242188,-0.023925781,-1.0361328,-0.006385351,0.019156054,0.13941349,187.8,36.0,-30.300001,43.3,-193.80473,0.0,1,0,0,3.9257648,3.0468452,false,0.0
19154,-0.0073242188,-0.023925781,-1.0361328,-0.006385351,0.019156054,0.13941349,187.8,36.0,-30.300001,43.3,-193.80473,0.0,1,0,0,3.9257648,3.0468452,false,0.0
19154,-0.0073242188,-0.023925781,-1.0361328,-0.006385351,0.019156054,0.13941349,187.8,36.0,-30.300001,43.3,-193.80473,0.0,1,0,0,3.9257648,3.0468452,false,0.0
19154,-0.0073242188,-0.023925781,-1.0361328,-0.006385351,0.019156054,0.13941349,187.8,36.0,-30.300001,43.3,-193.80473,0.0,1,0,0,3.9257648,3.0468452,false,0.0
19154,-0.0073242188,-0.023925781,-1.0361328,-0.006385351,0.019156054,0.13941349,187.8,36.0,-30.300001,43.3,-193.80473,0.0,1,0,0,3.9257648,3.0468452,false,0.0
19154,-0.0073242188,-0.023925781,-1.0361328,-0.006385351,0.019156054,0.13941349,187.8,36.0,-30.300001,43.3,-193.80473,0.0,1,0,0,3.9257648,3.0468452,false,0.0
19154,-0.0073242188,-0.023925781,-1.0361328,-0.006385351,0.019156054,0.13941349,187.8,36.0,-30.300001,43.3,-193.80473,0.0,1,0,0,3.9257648,3.0468452,false,0.0
19155,-0.0073242188,-0.023925781,-1.0361328,-0.006385351,0.019156054,0.13941349,187.8,36.0,-30.300001,43.3,-193.80473,0.0,1,0,0,3.9257648,3.0468452,false,0.0
