timestamp_ms,accX,accY,accZ,omegaX,omegaY,omegaZ,magX,magY,magZ,temp,deg,duty,isStop,isCurve,isSlope,V_Lipo,V_Battery,isSlipping, slipMagnitude
10728,0.0,0.0,0.0,0.0,0.0,0.0,0.0,0.0,0.0,0.0,0.0,0.0,0,0,0,0.0,0.0,false,0.0
10728,0.0,0.0,0.0,0.0,0.0,0.0,0.0,0.0,0.0,0.0,0.0,0.0,0,0,0,0.0,0.0,false,0.0
10728,0.0,0.0,0.0,0.0,0.0,0.0,0.0,0.0,0.0,0.0,0.0,0.0,0,0,0,0.0,0.0,false,0.0
10728,0.0,0.0,0.0,0.0,0.0,0.0,0.0,0.0,0.0,0.0,0.0,0.0,0,0,0,0.0,0.0,false,0.0
10729,0.0,0.0,0.0,0.0,0.0,0.0,0.0,0.0,0.0,0.0,0.0,0.0,0,0,0,0.0,0.0,false,0.0
10729,0.0,0.0,0.0,0.0,0.0,0.0,0.0,0.0,0.0,0.0,0.0,0.0,0,0,0,0.0,0.0,false,0.0
10729,0.0,0.0,0.0,0.0,0.0,0.0,0.0,0.0,0.0,0.0,0.0,0.0,0,0,0,0.0,0.0,false,0.0
10729,0.0,0.0,0.0,0.0,0.0,0.0,0.0,0.0,0.0,0.0,0.0,0.0,0,0,0,0.0,0.0,false,0.0
10729,0.0,0.0,0.0,0.0,0.0,0.0,0.0,0.0,0.0,0.0,0.0,0.0,0,0,0,0.0,0.0,false,0.0
10729,0.0,0.0,0.0,0.0,0.0,0.0,0.0,0.0,0.0,0.0,0.0,0.0,0,0,0,0.0,0.0,false,0.0
10729,0.0,0.0,0.0,0.0,0.0,0.0,0.0,0.0,0.0,0.0,0.0,0.0,0,0,0,0.0,0.0,false,0.0
10729,0.0,0.0,0.0,0.0,0.0,0.0,0.0,0.0,0.0,0.0,0.0,0.0,0,0,0,0.0,0.0,false,0.0
10729,0.0,0.0,0.0,0.0,0.0,0.0,0.0,0.0,0.0,0.0,0.0,0.0,0,0,0,0.0,0.0,false,0.0
10729,0.0,0.0,0.0,0.0,0.0,0.0,0.0,0.0,0.0,0.0,0.0,0.0,0,0,0,0.0,0.0,false,0.0
10729,0.0,0.0,0.0,0.0,0.0,0.0,0.0,0.0,0.0,0.0,0.0,0.0,0,0,0,0.0,0.0,false,0.0
10730,0.0,0.0,0.0,0.0,0.0,0.0,0.0,0.0,0.0,0.0,0.0,0.0,0,0,0,0.0,0.0,false,0.0
10730,0.0,0.0,0.0,0.0,0.0,0.0,0.0,0.0,0.0,0.0,0.0,0.0,0,0,0,0.0,0.0,false,0.0
10730,0.0,0.0,0.0,0.0,0.0,0.0,0.0,0.0,0.0,0.0,0.0,0.0,0,0,0,0.0,0.0,false,0.0
10730,0.0,0.0,0.0,0.0,0.0,0.0,0.0,0.0,0.0,0.0,0.0,0.0,0,0,0,0.0,0.0,false,0.0
10730,0.0,0.0,0.0,0.0,0.0,0.0,0.0,0.0,0.0,0.0,0.0,0.0,0,0,0,0.0,0.0,false,0.0
10730,0.0,0.0,0.0,0.0,0.0,0.0,0.0,0.0,0.0,0.0,0.0,0.0,0,0,0,0.0,0.0,false,0.0
10730,0.0,0.0,0.0,0.0,0.0,0.0,0.0,0.0,0.0,0.0,0.0,0.0,0,0,0,0.0,0.0,false,0.0
10730,0.0,0.0,0.0,0.0,0.0,0.0,0.0,0.0,0.0,0.0,0.0,0.0,0,0,0,0.0,0.0,false,0.0
10731,0.0,0.0,0.0,0.0,0.0,0.0,0.0,0.0,0.0,0.0,0.0,0.0,0,0,0,0.0,0.0,false,0.0
10731,0.0,0.0,0.0,0.0,0.0,0.0,0.0,0.0,0.0,0.0,0.0,0.0,0,0,0,0.0,0.0,false,0.0
10731,0.0,0.0,0.0,0.0,0.0,0.0,0.0,0.0,0.0,0.0,0.0,0.0,0,0,0,0.0,0.0,false,0.0
10732,0.0,0.0,0.0,0.0,0.0,0.0,0.0,0.0,0.0,0.0,0.0,0.0,0,0,0,0.0,0.0,false,0.0
10732,0.0,0.0,0.0,0.0,0.0,0.0,0.0,0.0,0.0,0.0,0.0,0.0,0,0,0,0.0,0.0,false,0.0
10732,0.0,0.0,0.0,0.0,0.0,0.0,0.0,0.0,0.0,0.0,0.0,0.0,0,0,0,0.0,0.0,false,0.0
10732,0.0,0.0,0.0,0.0,0.0,0.0,0.0,0.0,0.0,0.0,0.0,0.0,0,0,0,0.0,0.0,false,0.0
10734,0.0,0.0,0.0,0.0,0.0,0.0,0.0,0.0,0.0,0.0,0.0,0.0,0,0,0,0.0,0.0,false,0.0
10734,0.0,0.0,0.0,0.0,0.0,0.0,0.0,0.0,0.0,0.0,0.0,0.0,0,0,0,0.0,0.0,false,0.0
10734,0.0,0.0,0.0,0.0,0.0,0.0,0.0,0.0,0.0,0.0,0.0,0.0,0,0,0,0.0,0.0,false,0.0
10734,0.0,0.0,0.0,0.0,0.0,0.0,0.0,0.0,0.0,0.0,0.0,0.0,0,0,0,0.0,0.0,false,0.0
10734,0.0,0.0,0.0,0.0,0.0,0.0,0.0,0.0,0.0,0.0,0.0,0.0,0,0,0,0.0,0.0,false,0.0
10734,0.0,0.0,0.0,0.0,0.0,0.0,0.0,0.0,0.0,0.0,0.0,0.0,0,0,0,0.0,0.0,false,0.0
10735,0.0,0.0,0.0,0.0,0.0,0.0,0.0,0.0,0.0,0.0,0.0,0.0,0,0,0,0.0,0.0,false,0.0
10735,0.0,0.0,0.0,0.0,0.0,0.0,0.0,0.0,0.0,0.0,0.0,0.0,0,0,0,0.0,0.0,false,0.0
10735,0.0,0.0,0.0,0.0,0.0,0.0,0.0,0.0,0.0,0.0,0.0,0.0,0,0,0,0.0,0.0,false,0.0
10735,0.0,0.0,0.0,0.0,0.0,0.0,0.0,0.0,0.0,0.0,0.0,0.0,0,0,0,0.0,0.0,false,0.0
10735,0.0,0.0,0.0,0.0,0.0,0.0,0.0,0.0,0.0,0.0,0.0,0.0,0,0,0,0.0,0.0,false,0.0
10735,0.0,0.0,0.0,0.0,0.0,0.0,0.0,0.0,0.0,0.0,0.0,0.0,0,0,0,0.0,0.0,false,0.0
10735,-0.009277344,-0.026855469,-1.0332031,-0.046825908,1.2994189,-0.3139464,187.20001,33.0,-6.3,42.408825,-74.29182,0.0,1,0,0,3.8847182,3.0116732,false,0.0
10772,-0.009277344,-0.026855469,-1.0332031,-0.046825908,1.2994189,-0.3139464,187.20001,33.0,-6.3,42.408825,-74.29182,0.0,1,0,0,3.8847182,3.0116732,false,0.0
10772,-0.009277344,-0.026855469,-1.0332031,-0.046825908,1.2994189,-0.3139464,187.20001,33.0,-6.3,42.408825,-74.29182,0.0,1,0,0,3.8847182,3.0116732,false,0.0
10772,-0.009277344,-0.026855469,-1.0332031,-0.046825908,1.2994189,-0.3139464,187.20001,33.0,-6.3,42.408825,-74.29182,0.0,1,0,0,3.8847182,3.0116732,false,0.0
10772,-0.009277344,-0.026855469,-1.0332031,-0.046825908,1.2994189,-0.3139464,187.20001,33.0,-6.3,42.408825,-74.29182,0.0,1,0,0,3.8847182,3.0116732,false,0.0
10772,-0.009277344,-0.026855469,-1.0332031,-0.046825908,1.2994189,-0.3139464,187.20001,33.0,-6.3,42.408825,-74.29182,0.0,1,0,0,3.8847182,3.0116732,false,0.0
10772,-0.009277344,-0.026855469,-1.0332031,-0.046825908,1.2994189,-0.3139464,187.20001,33.0,-6.3,42.408825,-74.29182,0.0,1,0,0,3.8847182,3.0116732,false,0.0
10773,-0.009277344,-0.026855469,-1.0332031,-0.046825908,1.2994189,-0.3139464,187.20001,33.0,-6.3,42.408825,-74.29182,0.0,1,0,0,3.8847182,3.0116732,false,0.0
10773,-0.009277344,-0.026855469,-1.0332031,-0.046825908,1.2994189,-0.3139464,187.20001,33.0,-6.3,42.408825,-74.29182,0.0,1,0,0,3.8847182,3.0116732,false,0.0
10773,-0.009277344,-0.026855469,-1.0332031,-0.046825908,1.2994189,-0.3139464,187.20001,33.0,-6.3,42.408825,-74.29182,0.0,1,0,0,3.8847182,3.0116732,false,0.0
10773,-0.009277344,-0.026855469,-1.0332031,-0.046825908,1.2994189,-0.3139464,187.20001,33.0,-6.3,42.408825,-74.29182,0.0,1,0,0,3.8847182,3.0116732,false,0.0
10773,-0.009277344,-0.026855469,-1.0332031,-0.046825908,1.2994189,-0.3139464,187.20001,33.0,-6.3,42.408825,-74.29182,0.0,1,0,0,3.8847182,3.0116732,false,0.0
10773,-0.009277344,-0.026855469,-1.0332031,-0.046825908,1.2994189,-0.3139464,187.20001,33.0,-6.3,42.408825,-74.29182,0.0,1,0,0,3.8847182,3.0116732,false,0.0
10773,-0.009277344,-0.026855469,-1.0332031,-0.046825908,1.2994189,-0.3139464,187.20001,33.0,-6.3,42.408825,-74.29182,0.0,1,0,0,3.8847182,3.0116732,false,0.0
10773,-0.009277344,-0.026855469,-1.0332031,-0.046825908,1.2994189,-0.3139464,187.20001,33.0,-6.3,42.408825,-74.29182,0.0,1,0,0,3.8847182,3.0116732,false,0.0
10773,-0.009277344,-0.026855469,-1.0332031,-0.046825908,1.2994189,-0.3139464,187.20001,33.0,-6.3,42.408825,-74.29182,0.0,1,0,0,3.8847182,3.0116732,false,0.0
10773,-0.009277344,-0.026855469,-1.0332031,-0.046825908,1.2994189,-0.3139464,187.20001,33.0,-6.3,42.408825,-74.29182,0.0,1,0,0,3.8847182,3.0116732,false,0.0
10774,-0.009277344,-0.026855469,-1.0332031,-0.046825908,1.2994189,-0.3139464,187.20001,33.0,-6.3,42.408825,-74.29182,0.0,1,0,0,3.8847182,3.0116732,false,0.0
10774,-0.009277344,-0.026855469,-1.0332031,-0.046825908,1.2994189,-0.3139464,187.20001,33.0,-6.3,42.408825,-74.29182,0.0,1,0,0,3.8847182,3.0116732,false,0.0
10774,-0.009277344,-0.026855469,-1.0332031,-0.046825908,1.2994189,-0.3139464,187.20001,33.0,-6.3,42.408825,-74.29182,0.0,1,0,0,3.8847182,3.0116732,false,0.0
10774,-0.009277344,-0.026855469,-1.0332031,-0.046825908,1.2994189,-0.3139464,187.20001,33.0,-6.3,42.408825,-74.29182,0.0,1,0,0,3.8847182,3.0116732,false,0.0
10774,-0.009277344,-0.026855469,-1.0332031,-0.046825908,1.2994189,-0.3139464,187.20001,33.0,-6.3,42.408825,-74.29182,0.0,1,0,0,3.8847182,3.0116732,false,0.0
10774,-0.009277344,-0.026855469,-1.0332031,-0.046825908,1.2994189,-0.3139464,187.20001,33.0,-6.3,42.408825,-74.29182,0.0,1,0,0,3.8847182,3.0116732,false,0.0
10774,-0.009277344,-0.026855469,-1.0332031,-0.046825908,1.2994189,-0.3139464,187.20001,33.0,-6.3,42.408825,-74.29182,0.0,1,0,0,3.8847182,3.0116732,false,0.0
10774,-0.009277344,-0.026855469,-1.0332031,-0.046825908,1.2994189,-0.3139464,187.20001,33.0,-6.3,42.408825,-74.29182,0.0,1,0,0,3.8847182,3.0116732,false,0.0
10774,-0.009277344,-0.026855469,-1.0332031,-0.046825908,1.2994189,-0.3139464,187.20001,33.0,-6.3,42.408825,-74.29182,0.0,1,0,0,3.8847182,3.0116732,false,0.0
10774,-0.009277344,-0.026855469,-1.0332031,-0.046825908,1.2994189,-0.3139464,187.20001,33.0,-6.3,42.408825,-74.29182,0.0,1,0,0,3.8847182,3.0116732,false,0.0
10774,-0.009277344,-0.026855469,-1.0332031,-0.046825908,1.2994189,-0.3139464,187.20001,33.0,-6.3,42.408825,-74.29182,0.0,1,0,0,3.8847182,3.0116732,false,0.0
10775,-0.009277344,-0.026855469,-1.0332031,-0.046825908,1.2994189,-0.3139464,187.20001,33.0,-6.3,42.408825,-74.29182,0.0,1,0,0,3.8847182,3.0116732,false,0.0
10775,-0.009277344,-0.026855469,-1.0332031,-0.046825908,1.2994189,-0.3139464,187.20001,33.0,-6.3,42.408825,-74.29182,0.0,1,0,0,3.8847182,3.0116732,false,0.0
10775,-0.009277344,-0.026855469,-1.0332031,-0.046825908,1.2994189,-0.3139464,187.20001,33.0,-6.3,42.408825,-74.29182,0.0,1,0,0,3.8847182,3.0116732,false,0.0
10775,-0.009277344,-0.026855469,-1.0332031,-0.046825908,1.2994189,-0.3139464,187.20001,33.0,-6.3,42.408825,-74.29182,0.0,1,0,0,3.8847182,3.0116732,false,0.0
10775,-0.009277344,-0.026855469,-1.0332031,-0.046825908,1.2994189,-0.3139464,187.20001,33.0,-6.3,42.408825,-74.29182,0.0,1,0,0,3.8847182,3.0116732,false,0.0
10775,-0.009277344,-0.026855469,-1.0332031,-0.046825908,1.2994189,-0.3139464,187.20001,33.0,-6.3,42.408825,-74.29182,0.0,1,0,0,3.8847182,3.0116732,false,0.0
10775,-0.009277344,-0.026855469,-1.0332031,-0.046825908,1.2994189,-0.3139464,187.20001,33.0,-6.3,42.408825,-74.29182,0.0,1,0,0,3.8847182,3.0116732,false,0.0
10775,-0.009277344,-0.026855469,-1.0332031,-0.046825908,1.2994189,-0.3139464,187.20001,33.0,-6.3,42.408825,-74.29182,0.0,1,0,0,3.8847182,3.0116732,false,0.0
10775,-0.009277344,-0.026855469,-1.0332031,-0.046825908,1.2994189,-0.3139464,187.20001,33.0,-6.3,42.408825,-74.29182,0.0,1,0,0,3.8847182,3.0116732,false,0.0
10776,-0.009277344,-0.026855469,-1.0332031,-0.046825908,1.2994189,-0.3139464,187.20001,33.0,-6.3,42.408825,-74.29182,0.0,1,0,0,3.8847182,3.0116732,false,0.0
10776,-0.009277344,-0.026855469,-1.0332031,-0.046825908,1.2994189,-0.3139464,187.20001,33.0,-6.3,42.408825,-74.29182,0.0,1,0,0,3.8847182,3.0116732,false,0.0
10776,-0.009277344,-0.026855469,-1.0332031,-0.046825908,1.2994189,-0.3139464,187.20001,33.0,-6.3,42.408825,-74.29182,0.0,1,0,0,3.8847182,3.0116732,false,0.0
10776,-0.009277344,-0.026855469,-1.0332031,-0.046825908,1.2994189,-0.3139464,187.20001,33.0,-6.3,42.408825,-74.29182,0.0,1,0,0,3.8847182,3.0116732,false,0.0
10776,-0.009277344,-0.026855469,-1.0332031,-0.046825908,1.2994189,-0.3139464,187.20001,33.0,-6.3,42.408825,-74.29182,0.0,1,0,0,3.8847182,3.0116732,false,0.0
10776,-0.009277344,-0.026855469,-1.0332031,-0.046825908,1.2994189,-0.3139464,187.20001,33.0,-6.3,42.408825,-74.29182,0.0,1,0,0,3.8847182,3.0116732,false,0.0
10776,-0.0068359375,-0.026855469,-1.0356445,-0.04363323,1.3004832,-0.31181797,190.20001,32.100002,-7.8,42.376472,-74.29182,0.0,1,0,0,3.8905928,3.0175478,false,0.0
10819,-0.0068359375,-0.026855469,-1.0356445,-0.04363323,1.3004832,-0.31181797,190.20001,32.100002,-7.8,42.376472,-74.29182,0.0,1,0,0,3.8905928,3.0175478,false,0.0
10826,-0.0068359375,-0.026855469,-1.0356445,-0.04363323,1.3004832,-0.31181797,190.20001,32.100002,-7.8,42.376472,-74.29182,0.0,1,0,0,3.8905928,3.0175478,false,0.0
10826,-0.0068359375,-0.026855469,-1.0356445,-0.04363323,1.3004832,-0.31181797,190.20001,32.100002,-7.8,42.376472,-74.29182,0.0,1,0,0,3.8905928,3.0175478,false,0.0
10826,-0.0068359375,-0.026855469,-1.0356445,-0.04363323,1.3004832,-0.31181797,190.20001,32.100002,-7.8,42.376472,-74.29182,0.0,1,0,0,3.8905928,3.0175478,false,0.0
10826,-0.0068359375,-0.026855469,-1.0356445,-0.04363323,1.3004832,-0.31181797,190.20001,32.100002,-7.8,42.376472,-74.29182,0.0,1,0,0,3.8905928,3.0175478,false,0.0
10826,-0.0068359375,-0.026855469,-1.0356445,-0.04363323,1.3004832,-0.31181797,190.20001,32.100002,-7.8,42.376472,-74.29182,0.0,1,0,0,3.8905928,3.0175478,false,0.0
10826,-0.0068359375,-0.026855469,-1.0356445,-0.04363323,1.3004832,-0.31181797,190.20001,32.100002,-7.8,42.376472,-74.29182,0.0,1,0,0,3.8905928,3.0175478,false,0.0
10826,-0.0068359375,-0.026855469,-1.0356445,-0.04363323,1.3004832,-0.31181797,190.20001,32.100002,-7.8,42.376472,-74.29182,0.0,1,0,0,3.8905928,3.0175478,false,0.0
10826,-0.0068359375,-0.026855469,-1.0356445,-0.04363323,1.3004832,-0.31181797,190.20001,32.100002,-7.8,42.376472,-74.29182,0.0,1,0,0,3.8905928,3.0175478,false,0.0
10826,-0.0068359375,-0.026855469,-1.0356445,-0.04363323,1.3004832,-0.31181797,190.20001,32.100002,-7.8,42.376472,-74.29182,0.0,1,0,0,3.8905928,3.0175478,false,0.0
10826,-0.0068359375,-0.026855469,-1.0356445,-0.04363323,1.3004832,-0.31181797,190.20001,32.100002,-7.8,42.376472,-74.29182,0.0,1,0,0,3.8905928,3.0175478,false,0.0
10826,-0.0068359375,-0.026855469,-1.0356445,-0.04363323,1.3004832,-0.31181797,190.20001,32.100002,-7.8,42.376472,-74.29182,0.0,1,0,0,3.8905928,3.0175478,false,0.0
10826,-0.0068359375,-0.026855469,-1.0356445,-0.04363323,1.3004832,-0.31181797,190.20001,32.100002,-7.8,42.376472,-74.29182,0.0,1,0,0,3.8905928,3.0175478,false,0.0
10826,-0.0068359375,-0.026855469,-1.0356445,-0.04363323,1.3004832,-0.31181797,190.20001,32.100002,-7.8,42.376472,-74.29182,0.0,1,0,0,3.8905928,3.0175478,false,0.0
10826,-0.0068359375,-0.026855469,-1.0356445,-0.04363323,1.3004832,-0.31181797,190.20001,32.100002,-7.8,42.376472,-74.29182,0.0,1,0,0,3.8905928,3.0175478,false,0.0
10826,-0.0068359375,-0.026855469,-1.0356445,-0.04363323,1.3004832,-0.31181797,190.20001,32.100002,-7.8,42.376472,-74.29182,0.0,1,0,0,3.8905928,3.0175478,false,0.0
10826,-0.0068359375,-0.026855469,-1.0356445,-0.04363323,1.3004832,-0.31181797,190.20001,32.100002,-7.8,42.376472,-74.29182,0.0,1,0,0,3.8905928,3.0175478,false,0.0
10826,-0.0068359375,-0.026855469,-1.0356445,-0.04363323,1.3004832,-0.31181797,190.20001,32.100002,-7.8,42.376472,-74.29182,0.0,1,0,0,3.8905928,3.0175478,false,0.0
10826,-0.0068359375,-0.026855469,-1.0356445,-0.04363323,1.3004832,-0.31181797,190.20001,32.100002,-7.8,42.376472,-74.29182,0.0,1,0,0,3.8905928,3.0175478,false,0.0
10826,-0.0068359375,-0.026855469,-1.0356445,-0.04363323,1.3004832,-0.31181797,190.20001,32.100002,-7.8,42.376472,-74.29182,0.0,1,0,0,3.8905928,3.0175478,false,0.0
10827,-0.0068359375,-0.026855469,-1.0356445,-0.04363323,1.3004832,-0.31181797,190.20001,32.100002,-7.8,42.376472,-74.29182,0.0,1,0,0,3.8905928,3.0175478,false,0.0
10827,-0.0068359375,-0.026855469,-1.0356445,-0.04363323,1.3004832,-0.31181797,190.20001,32.100002,-7.8,42.376472,-74.29182,0.0,1,0,0,3.8905928,3.0175478,false,0.0
10827,-0.0068359375,-0.026855469,-1.0356445,-0.04363323,1.3004832,-0.31181797,190.20001,32.100002,-7.8,42.376472,-74.29182,0.0,1,0,0,3.8905928,3.0175478,false,0.0
10827,-0.0068359375,-0.026855469,-1.0356445,-0.04363323,1.3004832,-0.31181797,190.20001,32.100002,-7.8,42.376472,-74.29182,0.0,1,0,0,3.8905928,3.0175478,false,0.0
10827,-0.0068359375,-0.026855469,-1.0356445,-0.04363323,1.3004832,-0.31181797,190.20001,32.100002,-7.8,42.376472,-74.29182,0.0,1,0,0,3.8905928,3.0175478,false,0.0
10827,-0.0068359375,-0.026855469,-1.0356445,-0.04363323,1.3004832,-0.31181797,190.20001,32.100002,-7.8,42.376472,-74.29182,0.0,1,0,0,3.8905928,3.0175478,false,0.0
10827,-0.0068359375,-0.026855469,-1.0356445,-0.04363323,1.3004832,-0.31181797,190.20001,32.100002,-7.8,42.376472,-74.29182,0.0,1,0,0,3.8905928,3.0175478,false,0.0
10827,-0.0068359375,-0.026855469,-1.0356445,-0.04363323,1.3004832,-0.31181797,190.20001,32.100002,-7.8,42.376472,-74.29182,0.0,1,0,0,3.8905928,3.0175478,false,0.0
10827,-0.0068359375,-0.026855469,-1.0356445,-0.04363323,1.3004832,-0.31181797,190.20001,32.100002,-7.8,42.376472,-74.29182,0.0,1,0,0,3.8905928,3.0175478,false,0.0
10827,-0.0068359375,-0.026855469,-1.0356445,-0.04363323,1.3004832,-0.31181797,190.20001,32.100002,-7.8,42.376472,-74.29182,0.0,1,0,0,3.8905928,3.0175478,false,0.0
10827,-0.0068359375,-0.026855469,-1.0356445,-0.04363323,1.3004832,-0.31181797,190.20001,32.100002,-7.8,42.376472,-74.29182,0.0,1,0,0,3.8905928,3.0175478,false,0.0
10827,-0.0068359375,-0.026855469,-1.0356445,-0.04363323,1.3004832,-0.31181797,190.20001,32.100002,-7.8,42.376472,-74.29182,0.0,1,0,0,3.8905928,3.0175478,false,0.0
10827,-0.0068359375,-0.026855469,-1.0356445,-0.04363323,1.3004832,-0.31181797,190.20001,32.100002,-7.8,42.376472,-74.29182,0.0,1,0,0,3.8905928,3.0175478,false,0.0
10827,-0.0068359375,-0.026855469,-1.0356445,-0.04363323,1.3004832,-0.31181797,190.20001,32.100002,-7.8,42.376472,-74.29182,0.0,1,0,0,3.8905928,3.0175478,false,0.0
10827,-0.0068359375,-0.026855469,-1.0356445,-0.04363323,1.3004832,-0.31181797,190.20001,32.100002,-7.8,42.376472,-74.29182,0.0,1,0,0,3.8905928,3.0175478,false,0.0
10827,-0.0068359375,-0.026855469,-1.0356445,-0.04363323,1.3004832,-0.31181797,190.20001,32.100002,-7.8,42.376472,-74.29182,0.0,1,0,0,3.8905928,3.0175478,false,0.0
10827,-0.0068359375,-0.026855469,-1.0356445,-0.04363323,1.3004832,-0.31181797,190.20001,32.100002,-7.8,42.376472,-74.29182,0.0,1,0,0,3.8905928,3.0175478,false,0.0
10827,-0.0068359375,-0.026855469,-1.0356445,-0.04363323,1.3004832,-0.31181797,190.20001,32.100002,-7.8,42.376472,-74.29182,0.0,1,0,0,3.8905928,3.0175478,false,0.0
10828,-0.0068359375,-0.026855469,-1.0356445,-0.04363323,1.3004832,-0.31181797,190.20001,32.100002,-7.8,42.376472,-74.29182,0.0,1,0,0,3.8905928,3.0175478,false,0.0
10828,-0.0068359375,-0.026855469,-1.0356445,-0.04363323,1.3004832,-0.31181797,190.20001,32.100002,-7.8,42.376472,-74.29182,0.0,1,0,0,3.8905928,3.0175478,false,0.0
10828,-0.0068359375,-0.026855469,-1.0356445,-0.04363323,1.3004832,-0.31181797,190.20001,32.100002,-7.8,42.376472,-74.29182,0.0,1,0,0,3.8905928,3.0175478,false,0.0
10828,-0.0068359375,-0.026855469,-1.0356445,-0.04363323,1.3004832,-0.31181797,190.20001,32.100002,-7.8,42.376472,-74.29182,0.0,1,0,0,3.8905928,3.0175478,false,0.0
10828,-0.0107421875,-0.024414062,-1.0366211,-0.046825908,1.2994189,-0.31501064,186.90001,31.800001,-6.0,42.414707,-74.29182,0.0,1,0,0,3.8905928,3.0116732,false,0.0
10906,-0.0107421875,-0.024414062,-1.0366211,-0.046825908,1.2994189,-0.31501064,186.90001,31.800001,-6.0,42.414707,-74.29182,0.0,1,0,0,3.8905928,3.0116732,false,0.0
10906,-0.0107421875,-0.024414062,-1.0366211,-0.046825908,1.2994189,-0.31501064,186.90001,31.800001,-6.0,42.414707,-74.29182,0.0,1,0,0,3.8905928,3.0116732,false,0.0
10906,-0.0107421875,-0.024414062,-1.0366211,-0.046825908,1.2994189,-0.31501064,186.90001,31.800001,-6.0,42.414707,-74.29182,0.0,1,0,0,3.8905928,3.0116732,false,0.0
10906,-0.0107421875,-0.024414062,-1.0366211,-0.046825908,1.2994189,-0.31501064,186.90001,31.800001,-6.0,42.414707,-74.29182,0.0,1,0,0,3.8905928,3.0116732,false,0.0
10906,-0.0107421875,-0.024414062,-1.0366211,-0.046825908,1.2994189,-0.31501064,186.90001,31.800001,-6.0,42.414707,-74.29182,0.0,1,0,0,3.8905928,3.0116732,false,0.0
10906,-0.0107421875,-0.024414062,-1.0366211,-0.046825908,1.2994189,-0.31501064,186.90001,31.800001,-6.0,42.414707,-74.29182,0.0,1,0,0,3.8905928,3.0116732,false,0.0
10906,-0.0107421875,-0.024414062,-1.0366211,-0.046825908,1.2994189,-0.31501064,186.90001,31.800001,-6.0,42.414707,-74.29182,0.0,1,0,0,3.8905928,3.0116732,false,0.0
10906,-0.0107421875,-0.024414062,-1.0366211,-0.046825908,1.2994189,-0.31501064,186.90001,31.800001,-6.0,42.414707,-74.29182,0.0,1,0,0,3.8905928,3.0116732,false,0.0
10906,-0.0107421875,-0.024414062,-1.0366211,-0.046825908,1.2994189,-0.31501064,186.90001,31.800001,-6.0,42.414707,-74.29182,0.0,1,0,0,3.8905928,3.0116732,false,0.0
10906,-0.0107421875,-0.024414062,-1.0366211,-0.046825908,1.2994189,-0.31501064,186.90001,31.800001,-6.0,42.414707,-74.29182,0.0,1,0,0,3.8905928,3.0116732,false,0.0
10906,-0.0107421875,-0.024414062,-1.0366211,-0.046825908,1.2994189,-0.31501064,186.90001,31.800001,-6.0,42.414707,-74.29182,0.0,1,0,0,3.8905928,3.0116732,false,0.0
10906,-0.0107421875,-0.024414062,-1.0366211,-0.046825908,1.2994189,-0.31501064,186.90001,31.800001,-6.0,42.414707,-74.29182,0.0,1,0,0,3.8905928,3.0116732,false,0.0
10906,-0.0107421875,-0.024414062,-1.0366211,-0.046825908,1.2994189,-0.31501064,186.90001,31.800001,-6.0,42.414707,-74.29182,0.0,1,0,0,3.8905928,3.0116732,false,0.0
10906,-0.0107421875,-0.024414062,-1.0366211,-0.046825908,1.2994189,-0.31501064,186.90001,31.800001,-6.0,42.414707,-74.29182,0.0,1,0,0,3.8905928,3.0116732,false,0.0
10906,-0.0107421875,-0.024414062,-1.0366211,-0.046825908,1.2994189,-0.31501064,186.90001,31.800001,-6.0,42.414707,-74.29182,0.0,1,0,0,3.8905928,3.0116732,false,0.0
10906,-0.0107421875,-0.024414062,-1.0366211,-0.046825908,1.2994189,-0.31501064,186.90001,31.800001,-6.0,42.414707,-74.29182,0.0,1,0,0,3.8905928,3.0116732,false,0.0
10906,-0.0107421875,-0.024414062,-1.0366211,-0.046825908,1.2994189,-0.31501064,186.90001,31.800001,-6.0,42.414707,-74.29182,0.0,1,0,0,3.8905928,3.0116732,false,0.0
10906,-0.0107421875,-0.024414062,-1.0366211,-0.046825908,1.2994189,-0.31501064,186.90001,31.800001,-6.0,42.414707,-74.29182,0.0,1,0,0,3.8905928,3.0116732,false,0.0
10906,-0.0107421875,-0.024414062,-1.0366211,-0.046825908,1.2994189,-0.31501064,186.90001,31.800001,-6.0,42.414707,-74.29182,0.0,1,0,0,3.8905928,3.0116732,false,0.0
10906,-0.0107421875,-0.024414062,-1.0366211,-0.046825908,1.2994189,-0.31501064,186.90001,31.800001,-6.0,42.414707,-74.29182,0.0,1,0,0,3.8905928,3.0116732,false,0.0
10906,-0.0107421875,-0.024414062,-1.0366211,-0.046825908,1.2994189,-0.31501064,186.90001,31.800001,-6.0,42.414707,-74.29182,0.0,1,0,0,3.8905928,3.0116732,false,0.0
10906,-0.0107421875,-0.024414062,-1.0366211,-0.046825908,1.2994189,-0.31501064,186.90001,31.800001,-6.0,42.414707,-74.29182,0.0,1,0,0,3.8905928,3.0116732,false,0.0
10906,-0.0107421875,-0.024414062,-1.0366211,-0.046825908,1.2994189,-0.31501064,186.90001,31.800001,-6.0,42.414707,-74.29182,0.0,1,0,0,3.8905928,3.0116732,false,0.0
10907,-0.0107421875,-0.024414062,-1.0366211,-0.046825908,1.2994189,-0.31501064,186.90001,31.800001,-6.0,42.414707,-74.29182,0.0,1,0,0,3.8905928,3.0116732,false,0.0
10907,-0.0107421875,-0.024414062,-1.0366211,-0.046825908,1.2994189,-0.31501064,186.90001,31.800001,-6.0,42.414707,-74.29182,0.0,1,0,0,3.8905928,3.0116732,false,0.0
10907,-0.0107421875,-0.024414062,-1.0366211,-0.046825908,1.2994189,-0.31501064,186.90001,31.800001,-6.0,42.414707,-74.29182,0.0,1,0,0,3.8905928,3.0116732,false,0.0
10907,-0.0107421875,-0.024414062,-1.0366211,-0.046825908,1.2994189,-0.31501064,186.90001,31.800001,-6.0,42.414707,-74.29182,0.0,1,0,0,3.8905928,3.0116732,false,0.0
10907,-0.0107421875,-0.024414062,-1.0366211,-0.046825908,1.2994189,-0.31501064,186.90001,31.800001,-6.0,42.414707,-74.29182,0.0,1,0,0,3.8905928,3.0116732,false,0.0
10907,-0.0107421875,-0.024414062,-1.0366211,-0.046825908,1.2994189,-0.31501064,186.90001,31.800001,-6.0,42.414707,-74.29182,0.0,1,0,0,3.8905928,3.0116732,false,0.0
10907,-0.0107421875,-0.024414062,-1.0366211,-0.046825908,1.2994189,-0.31501064,186.90001,31.800001,-6.0,42.414707,-74.29182,0.0,1,0,0,3.8905928,3.0116732,false,0.0
10907,-0.0107421875,-0.024414062,-1.0366211,-0.046825908,1.2994189,-0.31501064,186.90001,31.800001,-6.0,42.414707,-74.29182,0.0,1,0,0,3.8905928,3.0116732,false,0.0
10907,-0.0107421875,-0.024414062,-1.0366211,-0.046825908,1.2994189,-0.31501064,186.90001,31.800001,-6.0,42.414707,-74.29182,0.0,1,0,0,3.8905928,3.0116732,false,0.0
10907,-0.0107421875,-0.024414062,-1.0366211,-0.046825908,1.2994189,-0.31501064,186.90001,31.800001,-6.0,42.414707,-74.29182,0.0,1,0,0,3.8905928,3.0116732,false,0.0
10907,-0.0107421875,-0.024414062,-1.0366211,-0.046825908,1.2994189,-0.31501064,186.90001,31.800001,-6.0,42.414707,-74.29182,0.0,1,0,0,3.8905928,3.0116732,false,0.0
10907,-0.0107421875,-0.024414062,-1.0366211,-0.046825908,1.2994189,-0.31501064,186.90001,31.800001,-6.0,42.414707,-74.29182,0.0,1,0,0,3.8905928,3.0116732,false,0.0
10907,-0.0107421875,-0.024414062,-1.0366211,-0.046825908,1.2994189,-0.31501064,186.90001,31.800001,-6.0,42.414707,-74.29182,0.0,1,0,0,3.8905928,3.0116732,false,0.0
10907,-0.0107421875,-0.024414062,-1.0366211,-0.046825908,1.2994189,-0.31501064,186.90001,31.800001,-6.0,42.414707,-74.29182,0.0,1,0,0,3.8905928,3.0116732,false,0.0
10907,-0.0107421875,-0.024414062,-1.0366211,-0.046825908,1.2994189,-0.31501064,186.90001,31.800001,-6.0,42.414707,-74.29182,0.0,1,0,0,3.8905928,3.0116732,false,0.0
10907,-0.0107421875,-0.024414062,-1.0366211,-0.046825908,1.2994189,-0.31501064,186.90001,31.800001,-6.0,42.414707,-74.29182,0.0,1,0,0,3.8905928,3.0116732,false,0.0
10907,-0.0107421875,-0.024414062,-1.0366211,-0.046825908,1.2994189,-0.31501064,186.90001,31.800001,-6.0,42.414707,-74.29182,0.0,1,0,0,3.8905928,3.0116732,false,0.0
10907,-0.0107421875,-0.024414062,-1.0366211,-0.046825908,1.2994189,-0.31501064,186.90001,31.800001,-6.0,42.414707,-74.29182,0.0,1,0,0,3.8905928,3.0116732,false,0.0
10907,-0.0107421875,-0.024414062,-1.0366211,-0.046825908,1.2994189,-0.31501064,186.90001,31.800001,-6.0,42.414707,-74.29182,0.0,1,0,0,3.8905928,3.0116732,false,0.0
10907,-0.008300781,-0.024414062,-1.0405273,-0.046825908,1.3004832,-0.3128822,188.1,30.900002,-5.1000004,42.402943,-74.29182,0.0,1,0,0,3.8905928,3.0175478,false,0.0
10931,-0.008300781,-0.024414062,-1.0405273,-0.046825908,1.3004832,-0.3128822,188.1,30.900002,-5.1000004,42.402943,-74.29182,0.0,1,0,0,3.8905928,3.0175478,false,0.0
10931,-0.008300781,-0.024414062,-1.0405273,-0.046825908,1.3004832,-0.3128822,188.1,30.900002,-5.1000004,42.402943,-74.29182,0.0,1,0,0,3.8905928,3.0175478,false,0.0
10931,-0.008300781,-0.024414062,-1.0405273,-0.046825908,1.3004832,-0.3128822,188.1,30.900002,-5.1000004,42.402943,-74.29182,0.0,1,0,0,3.8905928,3.0175478,false,0.0
10931,-0.008300781,-0.024414062,-1.0405273,-0.046825908,1.3004832,-0.3128822,188.1,30.900002,-5.1000004,42.402943,-74.29182,0.0,1,0,0,3.8905928,3.0175478,false,0.0
10931,-0.008300781,-0.024414062,-1.0405273,-0.046825908,1.3004832,-0.3128822,188.1,30.900002,-5.1000004,42.402943,-74.29182,0.0,1,0,0,3.8905928,3.0175478,false,0.0
10931,-0.008300781,-0.024414062,-1.0405273,-0.046825908,1.3004832,-0.3128822,188.1,30.900002,-5.1000004,42.402943,-74.29182,0.0,1,0,0,3.8905928,3.0175478,false,0.0
10931,-0.008300781,-0.024414062,-1.0405273,-0.046825908,1.3004832,-0.3128822,188.1,30.900002,-5.1000004,42.402943,-74.29182,0.0,1,0,0,3.8905928,3.0175478,false,0.0
10931,-0.008300781,-0.024414062,-1.0405273,-0.046825908,1.3004832,-0.3128822,188.1,30.900002,-5.1000004,42.402943,-74.29182,0.0,1,0,0,3.8905928,3.0175478,false,0.0
10931,-0.008300781,-0.024414062,-1.0405273,-0.046825908,1.3004832,-0.3128822,188.1,30.900002,-5.1000004,42.402943,-74.29182,0.0,1,0,0,3.8905928,3.0175478,false,0.0
10931,-0.008300781,-0.024414062,-1.0405273,-0.046825908,1.3004832,-0.3128822,188.1,30.900002,-5.1000004,42.402943,-74.29182,0.0,1,0,0,3.8905928,3.0175478,false,0.0
10931,-0.008300781,-0.024414062,-1.0405273,-0.046825908,1.3004832,-0.3128822,188.1,30.900002,-5.1000004,42.402943,-74.29182,0.0,1,0,0,3.8905928,3.0175478,false,0.0
10932,-0.008300781,-0.024414062,-1.0405273,-0.046825908,1.3004832,-0.3128822,188.1,30.900002,-5.1000004,42.402943,-74.29182,0.0,1,0,0,3.8905928,3.0175478,false,0.0
10932,-0.008300781,-0.024414062,-1.0405273,-0.046825908,1.3004832,-0.3128822,188.1,30.900002,-5.1000004,42.402943,-74.29182,0.0,1,0,0,3.8905928,3.0175478,false,0.0
10932,-0.008300781,-0.024414062,-1.0405273,-0.046825908,1.3004832,-0.3128822,188.1,30.900002,-5.1000004,42.402943,-74.29182,0.0,1,0,0,3.8905928,3.0175478,false,0.0
10932,-0.008300781,-0.024414062,-1.0405273,-0.046825908,1.3004832,-0.3128822,188.1,30.900002,-5.1000004,42.402943,-74.29182,0.0,1,0,0,3.8905928,3.0175478,false,0.0
10932,-0.008300781,-0.024414062,-1.0405273,-0.046825908,1.3004832,-0.3128822,188.1,30.900002,-5.1000004,42.402943,-74.29182,0.0,1,0,0,3.8905928,3.0175478,false,0.0
10932,-0.008300781,-0.024414062,-1.0405273,-0.046825908,1.3004832,-0.3128822,188.1,30.900002,-5.1000004,42.402943,-74.29182,0.0,1,0,0,3.8905928,3.0175478,false,0.0
10932,-0.008300781,-0.024414062,-1.0405273,-0.046825908,1.3004832,-0.3128822,188.1,30.900002,-5.1000004,42.402943,-74.29182,0.0,1,0,0,3.8905928,3.0175478,false,0.0
10932,-0.008300781,-0.024414062,-1.0405273,-0.046825908,1.3004832,-0.3128822,188.1,30.900002,-5.1000004,42.402943,-74.29182,0.0,1,0,0,3.8905928,3.0175478,false,0.0
10932,-0.008300781,-0.024414062,-1.0405273,-0.046825908,1.3004832,-0.3128822,188.1,30.900002,-5.1000004,42.402943,-74.29182,0.0,1,0,0,3.8905928,3.0175478,false,0.0
10932,-0.008300781,-0.024414062,-1.0405273,-0.046825908,1.3004832,-0.3128822,188.1,30.900002,-5.1000004,42.402943,-74.29182,0.0,1,0,0,3.8905928,3.0175478,false,0.0
10932,-0.008300781,-0.024414062,-1.0405273,-0.046825908,1.3004832,-0.3128822,188.1,30.900002,-5.1000004,42.402943,-74.29182,0.0,1,0,0,3.8905928,3.0175478,false,0.0
10932,-0.008300781,-0.024414062,-1.0405273,-0.046825908,1.3004832,-0.3128822,188.1,30.900002,-5.1000004,42.402943,-74.29182,0.0,1,0,0,3.8905928,3.0175478,false,0.0
10932,-0.008300781,-0.024414062,-1.0405273,-0.046825908,1.3004832,-0.3128822,188.1,30.900002,-5.1000004,42.402943,-74.29182,0.0,1,0,0,3.8905928,3.0175478,false,0.0
10932,-0.008300781,-0.024414062,-1.0405273,-0.046825908,1.3004832,-0.3128822,188.1,30.900002,-5.1000004,42.402943,-74.29182,0.0,1,0,0,3.8905928,3.0175478,false,0.0
10932,-0.008300781,-0.024414062,-1.0405273,-0.046825908,1.3004832,-0.3128822,188.1,30.900002,-5.1000004,42.402943,-74.29182,0.0,1,0,0,3.8905928,3.0175478,false,0.0
10933,-0.008300781,-0.024414062,-1.0405273,-0.046825908,1.3004832,-0.3128822,188.1,30.900002,-5.1000004,42.402943,-74.29182,0.0,1,0,0,3.8905928,3.0175478,false,0.0
10933,-0.008300781,-0.024414062,-1.0405273,-0.046825908,1.3004832,-0.3128822,188.1,30.900002,-5.1000004,42.402943,-74.29182,0.0,1,0,0,3.8905928,3.0175478,false,0.0
10933,-0.008300781,-0.024414062,-1.0405273,-0.046825908,1.3004832,-0.3128822,188.1,30.900002,-5.1000004,42.402943,-74.29182,0.0,1,0,0,3.8905928,3.0175478,false,0.0
10933,-0.008300781,-0.024414062,-1.0405273,-0.046825908,1.3004832,-0.3128822,188.1,30.900002,-5.1000004,42.402943,-74.29182,0.0,1,0,0,3.8905928,3.0175478,false,0.0
10933,-0.008300781,-0.024414062,-1.0405273,-0.046825908,1.3004832,-0.3128822,188.1,30.900002,-5.1000004,42.402943,-74.29182,0.0,1,0,0,3.8905928,3.0175478,false,0.0
10933,-0.008300781,-0.024414062,-1.0405273,-0.046825908,1.3004832,-0.3128822,188.1,30.900002,-5.1000004,42.402943,-74.29182,0.0,1,0,0,3.8905928,3.0175478,false,0.0
10933,-0.008300781,-0.024414062,-1.0405273,-0.046825908,1.3004832,-0.3128822,188.1,30.900002,-5.1000004,42.402943,-74.29182,0.0,1,0,0,3.8905928,3.0175478,false,0.0
10933,-0.008300781,-0.024414062,-1.0405273,-0.046825908,1.3004832,-0.3128822,188.1,30.900002,-5.1000004,42.402943,-74.29182,0.0,1,0,0,3.8905928,3.0175478,false,0.0
10933,-0.008300781,-0.024414062,-1.0405273,-0.046825908,1.3004832,-0.3128822,188.1,30.900002,-5.1000004,42.402943,-74.29182,0.0,1,0,0,3.8905928,3.0175478,false,0.0
10933,-0.008300781,-0.024414062,-1.0405273,-0.046825908,1.3004832,-0.3128822,188.1,30.900002,-5.1000004,42.402943,-74.29182,0.0,1,0,0,3.8905928,3.0175478,false,0.0
10933,-0.008300781,-0.024414062,-1.0405273,-0.046825908,1.3004832,-0.3128822,188.1,30.900002,-5.1000004,42.402943,-74.29182,0.0,1,0,0,3.8905928,3.0175478,false,0.0
10933,-0.008300781,-0.024414062,-1.0405273,-0.046825908,1.3004832,-0.3128822,188.1,30.900002,-5.1000004,42.402943,-74.29182,0.0,1,0,0,3.8905928,3.0175478,false,0.0
10933,-0.008300781,-0.024414062,-1.0405273,-0.046825908,1.3004832,-0.3128822,188.1,30.900002,-5.1000004,42.402943,-74.29182,0.0,1,0,0,3.8905928,3.0175478,false,0.0
10933,-0.008300781,-0.024414062,-1.0405273,-0.046825908,1.3004832,-0.3128822,188.1,30.900002,-5.1000004,42.402943,-74.29182,0.0,1,0,0,3.8905928,3.0175478,false,0.0
10933,-0.008300781,-0.024414062,-1.0405273,-0.046825908,1.3004832,-0.3128822,188.1,30.900002,-5.1000004,42.402943,-74.29182,0.0,1,0,0,3.8905928,3.0175478,false,0.0
10933,-0.008300781,-0.024414062,-1.0405273,-0.046825908,1.3004832,-0.3128822,188.1,30.900002,-5.1000004,42.402943,-74.29182,0.0,1,0,0,3.8905928,3.0175478,false,0.0
10933,-0.0078125,-0.026367188,-1.0375977,-0.045761682,1.2994189,-0.3139464,187.8,32.7,-6.9,42.39118,-74.29182,0.0,1,0,0,3.8905928,3.0057983,false,0.0
10974,-0.0078125,-0.026367188,-1.0375977,-0.045761682,1.2994189,-0.3139464,187.8,32.7,-6.9,42.39118,-74.29182,0.0,1,0,0,3.8905928,3.0057983,false,0.0
10975,-0.0078125,-0.026367188,-1.0375977,-0.045761682,1.2994189,-0.3139464,187.8,32.7,-6.9,42.39118,-74.29182,0.0,1,0,0,3.8905928,3.0057983,false,0.0
10975,-0.0078125,-0.026367188,-1.0375977,-0.045761682,1.2994189,-0.3139464,187.8,32.7,-6.9,42.39118,-74.29182,0.0,1,0,0,3.8905928,3.0057983,false,0.0
10976,-0.0078125,-0.026367188,-1.0375977,-0.045761682,1.2994189,-0.3139464,187.8,32.7,-6.9,42.39118,-74.29182,0.0,1,0,0,3.8905928,3.0057983,false,0.0
10976,-0.0078125,-0.026367188,-1.0375977,-0.045761682,1.2994189,-0.3139464,187.8,32.7,-6.9,42.39118,-74.29182,0.0,1,0,0,3.8905928,3.0057983,false,0.0
10976,-0.0078125,-0.026367188,-1.0375977,-0.045761682,1.2994189,-0.3139464,187.8,32.7,-6.9,42.39118,-74.29182,0.0,1,0,0,3.8905928,3.0057983,false,0.0
10976,-0.0078125,-0.026367188,-1.0375977,-0.045761682,1.2994189,-0.3139464,187.8,32.7,-6.9,42.39118,-74.29182,0.0,1,0,0,3.8905928,3.0057983,false,0.0
10976,-0.0078125,-0.026367188,-1.0375977,-0.045761682,1.2994189,-0.3139464,187.8,32.7,-6.9,42.39118,-74.29182,0.0,1,0,0,3.8905928,3.0057983,false,0.0
10976,-0.0078125,-0.026367188,-1.0375977,-0.045761682,1.2994189,-0.3139464,187.8,32.7,-6.9,42.39118,-74.29182,0.0,1,0,0,3.8905928,3.0057983,false,0.0
10976,-0.0078125,-0.026367188,-1.0375977,-0.045761682,1.2994189,-0.3139464,187.8,32.7,-6.9,42.39118,-74.29182,0.0,1,0,0,3.8905928,3.0057983,false,0.0
10976,-0.0078125,-0.026367188,-1.0375977,-0.045761682,1.2994189,-0.3139464,187.8,32.7,-6.9,42.39118,-74.29182,0.0,1,0,0,3.8905928,3.0057983,false,0.0
10976,-0.0078125,-0.026367188,-1.0375977,-0.045761682,1.2994189,-0.3139464,187.8,32.7,-6.9,42.39118,-74.29182,0.0,1,0,0,3.8905928,3.0057983,false,0.0
10976,-0.0078125,-0.026367188,-1.0375977,-0.045761682,1.2994189,-0.3139464,187.8,32.7,-6.9,42.39118,-74.29182,0.0,1,0,0,3.8905928,3.0057983,false,0.0
10976,-0.0078125,-0.026367188,-1.0375977,-0.045761682,1.2994189,-0.3139464,187.8,32.7,-6.9,42.39118,-74.29182,0.0,1,0,0,3.8905928,3.0057983,false,0.0
10976,-0.0078125,-0.026367188,-1.0375977,-0.045761682,1.2994189,-0.3139464,187.8,32.7,-6.9,42.39118,-74.29182,0.0,1,0,0,3.8905928,3.0057983,false,0.0
10976,-0.0078125,-0.026367188,-1.0375977,-0.045761682,1.2994189,-0.3139464,187.8,32.7,-6.9,42.39118,-74.29182,0.0,1,0,0,3.8905928,3.0057983,false,0.0
10976,-0.0078125,-0.026367188,-1.0375977,-0.045761682,1.2994189,-0.3139464,187.8,32.7,-6.9,42.39118,-74.29182,0.0,1,0,0,3.8905928,3.0057983,false,0.0
10976,-0.0078125,-0.026367188,-1.0375977,-0.045761682,1.2994189,-0.3139464,187.8,32.7,-6.9,42.39118,-74.29182,0.0,1,0,0,3.8905928,3.0057983,false,0.0
10976,-0.0078125,-0.026367188,-1.0375977,-0.045761682,1.2994189,-0.3139464,187.8,32.7,-6.9,42.39118,-74.29182,0.0,1,0,0,3.8905928,3.0057983,false,0.0
10976,-0.0078125,-0.026367188,-1.0375977,-0.045761682,1.2994189,-0.3139464,187.8,32.7,-6.9,42.39118,-74.29182,0.0,1,0,0,3.8905928,3.0057983,false,0.0
10976,-0.0078125,-0.026367188,-1.0375977,-0.045761682,1.2994189,-0.3139464,187.8,32.7,-6.9,42.39118,-74.29182,0.0,1,0,0,3.8905928,3.0057983,false,0.0
10976,-0.0078125,-0.026367188,-1.0375977,-0.045761682,1.2994189,-0.3139464,187.8,32.7,-6.9,42.39118,-74.29182,0.0,1,0,0,3.8905928,3.0057983,false,0.0
10976,-0.0078125,-0.026367188,-1.0375977,-0.045761682,1.2994189,-0.3139464,187.8,32.7,-6.9,42.39118,-74.29182,0.0,1,0,0,3.8905928,3.0057983,false,0.0
10976,-0.0078125,-0.026367188,-1.0375977,-0.045761682,1.2994189,-0.3139464,187.8,32.7,-6.9,42.39118,-74.29182,0.0,1,0,0,3.8905928,3.0057983,false,0.0
10977,-0.0078125,-0.026367188,-1.0375977,-0.045761682,1.2994189,-0.3139464,187.8,32.7,-6.9,42.39118,-74.29182,0.0,1,0,0,3.8905928,3.0057983,false,0.0
10977,-0.0078125,-0.026367188,-1.0375977,-0.045761682,1.2994189,-0.3139464,187.8,32.7,-6.9,42.39118,-74.29182,0.0,1,0,0,3.8905928,3.0057983,false,0.0
10977,-0.0078125,-0.026367188,-1.0375977,-0.045761682,1.2994189,-0.3139464,187.8,32.7,-6.9,42.39118,-74.29182,0.0,1,0,0,3.8905928,3.0057983,false,0.0
10977,-0.0078125,-0.026367188,-1.0375977,-0.045761682,1.2994189,-0.3139464,187.8,32.7,-6.9,42.39118,-74.29182,0.0,1,0,0,3.8905928,3.0057983,false,0.0
10977,-0.0078125,-0.026367188,-1.0375977,-0.045761682,1.2994189,-0.3139464,187.8,32.7,-6.9,42.39118,-74.29182,0.0,1,0,0,3.8905928,3.0057983,false,0.0
10977,-0.0078125,-0.026367188,-1.0375977,-0.045761682,1.2994189,-0.3139464,187.8,32.7,-6.9,42.39118,-74.29182,0.0,1,0,0,3.8905928,3.0057983,false,0.0
10977,-0.0078125,-0.026367188,-1.0375977,-0.045761682,1.2994189,-0.3139464,187.8,32.7,-6.9,42.39118,-74.29182,0.0,1,0,0,3.8905928,3.0057983,false,0.0
10977,-0.0078125,-0.026367188,-1.0375977,-0.045761682,1.2994189,-0.3139464,187.8,32.7,-6.9,42.39118,-74.29182,0.0,1,0,0,3.8905928,3.0057983,false,0.0
10977,-0.0078125,-0.026367188,-1.0375977,-0.045761682,1.2994189,-0.3139464,187.8,32.7,-6.9,42.39118,-74.29182,0.0,1,0,0,3.8905928,3.0057983,false,0.0
10977,-0.0078125,-0.026367188,-1.0375977,-0.045761682,1.2994189,-0.3139464,187.8,32.7,-6.9,42.39118,-74.29182,0.0,1,0,0,3.8905928,3.0057983,false,0.0
10977,-0.0078125,-0.026367188,-1.0375977,-0.045761682,1.2994189,-0.3139464,187.8,32.7,-6.9,42.39118,-74.29182,0.0,1,0,0,3.8905928,3.0057983,false,0.0
10977,-0.0078125,-0.026367188,-1.0375977,-0.045761682,1.2994189,-0.3139464,187.8,32.7,-6.9,42.39118,-74.29182,0.0,1,0,0,3.8905928,3.0057983,false,0.0
10977,-0.0078125,-0.026367188,-1.0375977,-0.045761682,1.2994189,-0.3139464,187.8,32.7,-6.9,42.39118,-74.29182,0.0,1,0,0,3.8905928,3.0057983,false,0.0
10977,-0.0078125,-0.026367188,-1.0375977,-0.045761682,1.2994189,-0.3139464,187.8,32.7,-6.9,42.39118,-74.29182,0.0,1,0,0,3.8905928,3.0057983,false,0.0
10977,-0.0078125,-0.026367188,-1.0375977,-0.045761682,1.2994189,-0.3139464,187.8,32.7,-6.9,42.39118,-74.29182,0.0,1,0,0,3.8905928,3.0057983,false,0.0
10977,-0.0078125,-0.026367188,-1.0375977,-0.045761682,1.2994189,-0.3139464,187.8,32.7,-6.9,42.39118,-74.29182,0.0,1,0,0,3.8905928,3.0057983,false,0.0
10977,-0.0078125,-0.026367188,-1.0375977,-0.045761682,1.2994189,-0.3139464,187.8,32.7,-6.9,42.39118,-74.29182,0.0,1,0,0,3.8905928,3.0057983,false,0.0
10977,-0.0078125,-0.026367188,-1.0375977,-0.045761682,1.2994189,-0.3139464,187.8,32.7,-6.9,42.39118,-74.29182,0.0,1,0,0,3.8905928,3.0057983,false,0.0
10977,-0.008300781,-0.023925781,-1.0356445,-0.045761682,1.2983546,-0.31501064,189.0,33.9,-8.1,42.39706,-74.29182,0.0,1,0,0,3.8905928,3.0,false,0.0
11031,-0.008300781,-0.023925781,-1.0356445,-0.045761682,1.2983546,-0.31501064,189.0,33.9,-8.1,42.39706,-74.29182,0.0,1,0,0,3.8905928,3.0,false,0.0
11032,-0.008300781,-0.023925781,-1.0356445,-0.045761682,1.2983546,-0.31501064,189.0,33.9,-8.1,42.39706,-74.29182,0.0,1,0,0,3.8905928,3.0,false,0.0
11032,-0.008300781,-0.023925781,-1.0356445,-0.045761682,1.2983546,-0.31501064,189.0,33.9,-8.1,42.39706,-74.29182,0.0,1,0,0,3.8905928,3.0,false,0.0
11032,-0.008300781,-0.023925781,-1.0356445,-0.045761682,1.2983546,-0.31501064,189.0,33.9,-8.1,42.39706,-74.29182,0.0,1,0,0,3.8905928,3.0,false,0.0
11032,-0.008300781,-0.023925781,-1.0356445,-0.045761682,1.2983546,-0.31501064,189.0,33.9,-8.1,42.39706,-74.29182,0.0,1,0,0,3.8905928,3.0,false,0.0
11032,-0.008300781,-0.023925781,-1.0356445,-0.045761682,1.2983546,-0.31501064,189.0,33.9,-8.1,42.39706,-74.29182,0.0,1,0,0,3.8905928,3.0,false,0.0
11032,-0.008300781,-0.023925781,-1.0356445,-0.045761682,1.2983546,-0.31501064,189.0,33.9,-8.1,42.39706,-74.29182,0.0,1,0,0,3.8905928,3.0,false,0.0
11032,-0.008300781,-0.023925781,-1.0356445,-0.045761682,1.2983546,-0.31501064,189.0,33.9,-8.1,42.39706,-74.29182,0.0,1,0,0,3.8905928,3.0,false,0.0
11032,-0.008300781,-0.023925781,-1.0356445,-0.045761682,1.2983546,-0.31501064,189.0,33.9,-8.1,42.39706,-74.29182,0.0,1,0,0,3.8905928,3.0,false,0.0
11032,-0.008300781,-0.023925781,-1.0356445,-0.045761682,1.2983546,-0.31501064,189.0,33.9,-8.1,42.39706,-74.29182,0.0,1,0,0,3.8905928,3.0,false,0.0
11032,-0.008300781,-0.023925781,-1.0356445,-0.045761682,1.2983546,-0.31501064,189.0,33.9,-8.1,42.39706,-74.29182,0.0,1,0,0,3.8905928,3.0,false,0.0
11032,-0.008300781,-0.023925781,-1.0356445,-0.045761682,1.2983546,-0.31501064,189.0,33.9,-8.1,42.39706,-74.29182,0.0,1,0,0,3.8905928,3.0,false,0.0
11032,-0.008300781,-0.023925781,-1.0356445,-0.045761682,1.2983546,-0.31501064,189.0,33.9,-8.1,42.39706,-74.29182,0.0,1,0,0,3.8905928,3.0,false,0.0
11032,-0.008300781,-0.023925781,-1.0356445,-0.045761682,1.2983546,-0.31501064,189.0,33.9,-8.1,42.39706,-74.29182,0.0,1,0,0,3.8905928,3.0,false,0.0
11032,-0.008300781,-0.023925781,-1.0356445,-0.045761682,1.2983546,-0.31501064,189.0,33.9,-8.1,42.39706,-74.29182,0.0,1,0,0,3.8905928,3.0,false,0.0
11032,-0.008300781,-0.023925781,-1.0356445,-0.045761682,1.2983546,-0.31501064,189.0,33.9,-8.1,42.39706,-74.29182,0.0,1,0,0,3.8905928,3.0,false,0.0
11032,-0.008300781,-0.023925781,-1.0356445,-0.045761682,1.2983546,-0.31501064,189.0,33.9,-8.1,42.39706,-74.29182,0.0,1,0,0,3.8905928,3.0,false,0.0
11032,-0.008300781,-0.023925781,-1.0356445,-0.045761682,1.2983546,-0.31501064,189.0,33.9,-8.1,42.39706,-74.29182,0.0,1,0,0,3.8905928,3.0,false,0.0
11032,-0.008300781,-0.023925781,-1.0356445,-0.045761682,1.2983546,-0.31501064,189.0,33.9,-8.1,42.39706,-74.29182,0.0,1,0,0,3.8905928,3.0,false,0.0
11032,-0.008300781,-0.023925781,-1.0356445,-0.045761682,1.2983546,-0.31501064,189.0,33.9,-8.1,42.39706,-74.29182,0.0,1,0,0,3.8905928,3.0,false,0.0
11033,-0.008300781,-0.023925781,-1.0356445,-0.045761682,1.2983546,-0.31501064,189.0,33.9,-8.1,42.39706,-74.29182,0.0,1,0,0,3.8905928,3.0,false,0.0
11033,-0.008300781,-0.023925781,-1.0356445,-0.045761682,1.2983546,-0.31501064,189.0,33.9,-8.1,42.39706,-74.29182,0.0,1,0,0,3.8905928,3.0,false,0.0
11044,-0.008300781,-0.023925781,-1.0356445,-0.045761682,1.2983546,-0.31501064,189.0,33.9,-8.1,42.39706,-74.29182,0.0,1,0,0,3.8905928,3.0,false,0.0
11044,-0.008300781,-0.023925781,-1.0356445,-0.045761682,1.2983546,-0.31501064,189.0,33.9,-8.1,42.39706,-74.29182,0.0,1,0,0,3.8905928,3.0,false,0.0
11044,-0.008300781,-0.023925781,-1.0356445,-0.045761682,1.2983546,-0.31501064,189.0,33.9,-8.1,42.39706,-74.29182,0.0,1,0,0,3.8905928,3.0,false,0.0
11044,-0.008300781,-0.023925781,-1.0356445,-0.045761682,1.2983546,-0.31501064,189.0,33.9,-8.1,42.39706,-74.29182,0.0,1,0,0,3.8905928,3.0,false,0.0
11044,-0.008300781,-0.023925781,-1.0356445,-0.045761682,1.2983546,-0.31501064,189.0,33.9,-8.1,42.39706,-74.29182,0.0,1,0,0,3.8905928,3.0,false,0.0
11044,-0.008300781,-0.023925781,-1.0356445,-0.045761682,1.2983546,-0.31501064,189.0,33.9,-8.1,42.39706,-74.29182,0.0,1,0,0,3.8905928,3.0,false,0.0
11044,-0.008300781,-0.023925781,-1.0356445,-0.045761682,1.2983546,-0.31501064,189.0,33.9,-8.1,42.39706,-74.29182,0.0,1,0,0,3.8905928,3.0,false,0.0
11044,-0.008300781,-0.023925781,-1.0356445,-0.045761682,1.2983546,-0.31501064,189.0,33.9,-8.1,42.39706,-74.29182,0.0,1,0,0,3.8905928,3.0,false,0.0
11044,-0.008300781,-0.023925781,-1.0356445,-0.045761682,1.2983546,-0.31501064,189.0,33.9,-8.1,42.39706,-74.29182,0.0,1,0,0,3.8905928,3.0,false,0.0
11044,-0.008300781,-0.023925781,-1.0356445,-0.045761682,1.2983546,-0.31501064,189.0,33.9,-8.1,42.39706,-74.29182,0.0,1,0,0,3.8905928,3.0,false,0.0
11044,-0.008300781,-0.023925781,-1.0356445,-0.045761682,1.2983546,-0.31501064,189.0,33.9,-8.1,42.39706,-74.29182,0.0,1,0,0,3.8905928,3.0,false,0.0
11044,-0.008300781,-0.023925781,-1.0356445,-0.045761682,1.2983546,-0.31501064,189.0,33.9,-8.1,42.39706,-74.29182,0.0,1,0,0,3.8905928,3.0,false,0.0
11044,-0.008300781,-0.023925781,-1.0356445,-0.045761682,1.2983546,-0.31501064,189.0,33.9,-8.1,42.39706,-74.29182,0.0,1,0,0,3.8905928,3.0,false,0.0
11044,-0.008300781,-0.023925781,-1.0356445,-0.045761682,1.2983546,-0.31501064,189.0,33.9,-8.1,42.39706,-74.29182,0.0,1,0,0,3.8905928,3.0,false,0.0
11044,-0.008300781,-0.023925781,-1.0356445,-0.045761682,1.2983546,-0.31501064,189.0,33.9,-8.1,42.39706,-74.29182,0.0,1,0,0,3.8905928,3.0,false,0.0
11044,-0.008300781,-0.023925781,-1.0356445,-0.045761682,1.2983546,-0.31501064,189.0,33.9,-8.1,42.39706,-74.29182,0.0,1,0,0,3.8905928,3.0,false,0.0
11044,-0.008300781,-0.023925781,-1.0356445,-0.045761682,1.2983546,-0.31501064,189.0,33.9,-8.1,42.39706,-74.29182,0.0,1,0,0,3.8905928,3.0,false,0.0
11044,-0.008300781,-0.023925781,-1.0356445,-0.045761682,1.2983546,-0.31501064,189.0,33.9,-8.1,42.39706,-74.29182,0.0,1,0,0,3.8905928,3.0,false,0.0
11044,-0.008300781,-0.023925781,-1.0356445,-0.045761682,1.2983546,-0.31501064,189.0,33.9,-8.1,42.39706,-74.29182,0.0,1,0,0,3.8905928,3.0,false,0.0
11044,-0.008300781,-0.023925781,-1.0356445,-0.045761682,1.2983546,-0.31501064,189.0,33.9,-8.1,42.39706,-74.29182,0.0,1,0,0,3.8905928,3.0,false,0.0
11045,-0.010253906,-0.024414062,-1.03125,-0.042569008,1.2983546,-0.3128822,188.70001,33.600002,-9.3,42.42647,-74.29182,0.0,1,0,0,3.8905928,3.0057983,false,0.0
11089,-0.010253906,-0.024414062,-1.03125,-0.042569008,1.2983546,-0.3128822,188.70001,33.600002,-9.3,42.42647,-74.29182,0.0,1,0,0,3.8905928,3.0057983,false,0.0
11089,-0.010253906,-0.024414062,-1.03125,-0.042569008,1.2983546,-0.3128822,188.70001,33.600002,-9.3,42.42647,-74.29182,0.0,1,0,0,3.8905928,3.0057983,false,0.0
11089,-0.010253906,-0.024414062,-1.03125,-0.042569008,1.2983546,-0.3128822,188.70001,33.600002,-9.3,42.42647,-74.29182,0.0,1,0,0,3.8905928,3.0057983,false,0.0
11089,-0.010253906,-0.024414062,-1.03125,-0.042569008,1.2983546,-0.3128822,188.70001,33.600002,-9.3,42.42647,-74.29182,0.0,1,0,0,3.8905928,3.0057983,false,0.0
11089,-0.010253906,-0.024414062,-1.03125,-0.042569008,1.2983546,-0.3128822,188.70001,33.600002,-9.3,42.42647,-74.29182,0.0,1,0,0,3.8905928,3.0057983,false,0.0
11089,-0.010253906,-0.024414062,-1.03125,-0.042569008,1.2983546,-0.3128822,188.70001,33.600002,-9.3,42.42647,-74.29182,0.0,1,0,0,3.8905928,3.0057983,false,0.0
11090,-0.010253906,-0.024414062,-1.03125,-0.042569008,1.2983546,-0.3128822,188.70001,33.600002,-9.3,42.42647,-74.29182,0.0,1,0,0,3.8905928,3.0057983,false,0.0
11090,-0.010253906,-0.024414062,-1.03125,-0.042569008,1.2983546,-0.3128822,188.70001,33.600002,-9.3,42.42647,-74.29182,0.0,1,0,0,3.8905928,3.0057983,false,0.0
11090,-0.010253906,-0.024414062,-1.03125,-0.042569008,1.2983546,-0.3128822,188.70001,33.600002,-9.3,42.42647,-74.29182,0.0,1,0,0,3.8905928,3.0057983,false,0.0
11090,-0.010253906,-0.024414062,-1.03125,-0.042569008,1.2983546,-0.3128822,188.70001,33.600002,-9.3,42.42647,-74.29182,0.0,1,0,0,3.8905928,3.0057983,false,0.0
11090,-0.010253906,-0.024414062,-1.03125,-0.042569008,1.2983546,-0.3128822,188.70001,33.600002,-9.3,42.42647,-74.29182,0.0,1,0,0,3.8905928,3.0057983,false,0.0
11090,-0.010253906,-0.024414062,-1.03125,-0.042569008,1.2983546,-0.3128822,188.70001,33.600002,-9.3,42.42647,-74.29182,0.0,1,0,0,3.8905928,3.0057983,false,0.0
11090,-0.010253906,-0.024414062,-1.03125,-0.042569008,1.2983546,-0.3128822,188.70001,33.600002,-9.3,42.42647,-74.29182,0.0,1,0,0,3.8905928,3.0057983,false,0.0
11090,-0.010253906,-0.024414062,-1.03125,-0.042569008,1.2983546,-0.3128822,188.70001,33.600002,-9.3,42.42647,-74.29182,0.0,1,0,0,3.8905928,3.0057983,false,0.0
11090,-0.010253906,-0.024414062,-1.03125,-0.042569008,1.2983546,-0.3128822,188.70001,33.600002,-9.3,42.42647,-74.29182,0.0,1,0,0,3.8905928,3.0057983,false,0.0
11090,-0.010253906,-0.024414062,-1.03125,-0.042569008,1.2983546,-0.3128822,188.70001,33.600002,-9.3,42.42647,-74.29182,0.0,1,0,0,3.8905928,3.0057983,false,0.0
11090,-0.010253906,-0.024414062,-1.03125,-0.042569008,1.2983546,-0.3128822,188.70001,33.600002,-9.3,42.42647,-74.29182,0.0,1,0,0,3.8905928,3.0057983,false,0.0
11090,-0.010253906,-0.024414062,-1.03125,-0.042569008,1.2983546,-0.3128822,188.70001,33.600002,-9.3,42.42647,-74.29182,0.0,1,0,0,3.8905928,3.0057983,false,0.0
11090,-0.010253906,-0.024414062,-1.03125,-0.042569008,1.2983546,-0.3128822,188.70001,33.600002,-9.3,42.42647,-74.29182,0.0,1,0,0,3.8905928,3.0057983,false,0.0
11090,-0.010253906,-0.024414062,-1.03125,-0.042569008,1.2983546,-0.3128822,188.70001,33.600002,-9.3,42.42647,-74.29182,0.0,1,0,0,3.8905928,3.0057983,false,0.0
11090,-0.010253906,-0.024414062,-1.03125,-0.042569008,1.2983546,-0.3128822,188.70001,33.600002,-9.3,42.42647,-74.29182,0.0,1,0,0,3.8905928,3.0057983,false,0.0
11090,-0.010253906,-0.024414062,-1.03125,-0.042569008,1.2983546,-0.3128822,188.70001,33.600002,-9.3,42.42647,-74.29182,0.0,1,0,0,3.8905928,3.0057983,false,0.0
11090,-0.010253906,-0.024414062,-1.03125,-0.042569008,1.2983546,-0.3128822,188.70001,33.600002,-9.3,42.42647,-74.29182,0.0,1,0,0,3.8905928,3.0057983,false,0.0
11090,-0.010253906,-0.024414062,-1.03125,-0.042569008,1.2983546,-0.3128822,188.70001,33.600002,-9.3,42.42647,-74.29182,0.0,1,0,0,3.8905928,3.0057983,false,0.0
11090,-0.010253906,-0.024414062,-1.03125,-0.042569008,1.2983546,-0.3128822,188.70001,33.600002,-9.3,42.42647,-74.29182,0.0,1,0,0,3.8905928,3.0057983,false,0.0
11091,-0.010253906,-0.024414062,-1.03125,-0.042569008,1.2983546,-0.3128822,188.70001,33.600002,-9.3,42.42647,-74.29182,0.0,1,0,0,3.8905928,3.0057983,false,0.0
11091,-0.010253906,-0.024414062,-1.03125,-0.042569008,1.2983546,-0.3128822,188.70001,33.600002,-9.3,42.42647,-74.29182,0.0,1,0,0,3.8905928,3.0057983,false,0.0
11091,-0.010253906,-0.024414062,-1.03125,-0.042569008,1.2983546,-0.3128822,188.70001,33.600002,-9.3,42.42647,-74.29182,0.0,1,0,0,3.8905928,3.0057983,false,0.0
11091,-0.010253906,-0.024414062,-1.03125,-0.042569008,1.2983546,-0.3128822,188.70001,33.600002,-9.3,42.42647,-74.29182,0.0,1,0,0,3.8905928,3.0057983,false,0.0
11091,-0.010253906,-0.024414062,-1.03125,-0.042569008,1.2983546,-0.3128822,188.70001,33.600002,-9.3,42.42647,-74.29182,0.0,1,0,0,3.8905928,3.0057983,false,0.0
11091,-0.010253906,-0.024414062,-1.03125,-0.042569008,1.2983546,-0.3128822,188.70001,33.600002,-9.3,42.42647,-74.29182,0.0,1,0,0,3.8905928,3.0057983,false,0.0
11091,-0.010253906,-0.024414062,-1.03125,-0.042569008,1.2983546,-0.3128822,188.70001,33.600002,-9.3,42.42647,-74.29182,0.0,1,0,0,3.8905928,3.0057983,false,0.0
11091,-0.010253906,-0.024414062,-1.03125,-0.042569008,1.2983546,-0.3128822,188.70001,33.600002,-9.3,42.42647,-74.29182,0.0,1,0,0,3.8905928,3.0057983,false,0.0
11091,-0.010253906,-0.024414062,-1.03125,-0.042569008,1.2983546,-0.3128822,188.70001,33.600002,-9.3,42.42647,-74.29182,0.0,1,0,0,3.8905928,3.0057983,false,0.0
11091,-0.010253906,-0.024414062,-1.03125,-0.042569008,1.2983546,-0.3128822,188.70001,33.600002,-9.3,42.42647,-74.29182,0.0,1,0,0,3.8905928,3.0057983,false,0.0
11091,-0.010253906,-0.024414062,-1.03125,-0.042569008,1.2983546,-0.3128822,188.70001,33.600002,-9.3,42.42647,-74.29182,0.0,1,0,0,3.8905928,3.0057983,false,0.0
11091,-0.010253906,-0.024414062,-1.03125,-0.042569008,1.2983546,-0.3128822,188.70001,33.600002,-9.3,42.42647,-74.29182,0.0,1,0,0,3.8905928,3.0057983,false,0.0
11091,-0.010253906,-0.024414062,-1.03125,-0.042569008,1.2983546,-0.3128822,188.70001,33.600002,-9.3,42.42647,-74.29182,0.0,1,0,0,3.8905928,3.0057983,false,0.0
11091,-0.010253906,-0.024414062,-1.03125,-0.042569008,1.2983546,-0.3128822,188.70001,33.600002,-9.3,42.42647,-74.29182,0.0,1,0,0,3.8905928,3.0057983,false,0.0
11091,-0.010253906,-0.024414062,-1.03125,-0.042569008,1.2983546,-0.3128822,188.70001,33.600002,-9.3,42.42647,-74.29182,0.0,1,0,0,3.8905928,3.0057983,false,0.0
11091,-0.010253906,-0.024414062,-1.03125,-0.042569008,1.2983546,-0.3128822,188.70001,33.600002,-9.3,42.42647,-74.29182,0.0,1,0,0,3.8905928,3.0057983,false,0.0
11091,-0.010253906,-0.024414062,-1.03125,-0.042569008,1.2983546,-0.3128822,188.70001,33.600002,-9.3,42.42647,-74.29182,0.0,1,0,0,3.8905928,3.0057983,false,0.0
11092,-0.0087890625,-0.024902344,-1.0371094,-0.04363323,1.2983546,-0.31501064,189.0,35.4,-3.9,42.39706,-74.29182,0.0,1,0,0,3.873045,3.0,false,0.0
11119,-0.0087890625,-0.024902344,-1.0371094,-0.04363323,1.2983546,-0.31501064,189.0,35.4,-3.9,42.39706,-74.29182,0.0,1,0,0,3.873045,3.0,false,0.0
11119,-0.0087890625,-0.024902344,-1.0371094,-0.04363323,1.2983546,-0.31501064,189.0,35.4,-3.9,42.39706,-74.29182,0.0,1,0,0,3.873045,3.0,false,0.0
11119,-0.0087890625,-0.024902344,-1.0371094,-0.04363323,1.2983546,-0.31501064,189.0,35.4,-3.9,42.39706,-74.29182,0.0,1,0,0,3.873045,3.0,false,0.0
11119,-0.0087890625,-0.024902344,-1.0371094,-0.04363323,1.2983546,-0.31501064,189.0,35.4,-3.9,42.39706,-74.29182,0.0,1,0,0,3.873045,3.0,false,0.0
11119,-0.0087890625,-0.024902344,-1.0371094,-0.04363323,1.2983546,-0.31501064,189.0,35.4,-3.9,42.39706,-74.29182,0.0,1,0,0,3.873045,3.0,false,0.0
11119,-0.0087890625,-0.024902344,-1.0371094,-0.04363323,1.2983546,-0.31501064,189.0,35.4,-3.9,42.39706,-74.29182,0.0,1,0,0,3.873045,3.0,false,0.0
11119,-0.0087890625,-0.024902344,-1.0371094,-0.04363323,1.2983546,-0.31501064,189.0,35.4,-3.9,42.39706,-74.29182,0.0,1,0,0,3.873045,3.0,false,0.0
11119,-0.0087890625,-0.024902344,-1.0371094,-0.04363323,1.2983546,-0.31501064,189.0,35.4,-3.9,42.39706,-74.29182,0.0,1,0,0,3.873045,3.0,false,0.0
11134,-0.0087890625,-0.024902344,-1.0371094,-0.04363323,1.2983546,-0.31501064,189.0,35.4,-3.9,42.39706,-74.29182,0.0,1,0,0,3.873045,3.0,false,0.0
11134,-0.0087890625,-0.024902344,-1.0371094,-0.04363323,1.2983546,-0.31501064,189.0,35.4,-3.9,42.39706,-74.29182,0.0,1,0,0,3.873045,3.0,false,0.0
11134,-0.0087890625,-0.024902344,-1.0371094,-0.04363323,1.2983546,-0.31501064,189.0,35.4,-3.9,42.39706,-74.29182,0.0,1,0,0,3.873045,3.0,false,0.0
11134,-0.0087890625,-0.024902344,-1.0371094,-0.04363323,1.2983546,-0.31501064,189.0,35.4,-3.9,42.39706,-74.29182,0.0,1,0,0,3.873045,3.0,false,0.0
11134,-0.0087890625,-0.024902344,-1.0371094,-0.04363323,1.2983546,-0.31501064,189.0,35.4,-3.9,42.39706,-74.29182,0.0,1,0,0,3.873045,3.0,false,0.0
11134,-0.0087890625,-0.024902344,-1.0371094,-0.04363323,1.2983546,-0.31501064,189.0,35.4,-3.9,42.39706,-74.29182,0.0,1,0,0,3.873045,3.0,false,0.0
11134,-0.0087890625,-0.024902344,-1.0371094,-0.04363323,1.2983546,-0.31501064,189.0,35.4,-3.9,42.39706,-74.29182,0.0,1,0,0,3.873045,3.0,false,0.0
11134,-0.0087890625,-0.024902344,-1.0371094,-0.04363323,1.2983546,-0.31501064,189.0,35.4,-3.9,42.39706,-74.29182,0.0,1,0,0,3.873045,3.0,false,0.0
11134,-0.0087890625,-0.024902344,-1.0371094,-0.04363323,1.2983546,-0.31501064,189.0,35.4,-3.9,42.39706,-74.29182,0.0,1,0,0,3.873045,3.0,false,0.0
11134,-0.0087890625,-0.024902344,-1.0371094,-0.04363323,1.2983546,-0.31501064,189.0,35.4,-3.9,42.39706,-74.29182,0.0,1,0,0,3.873045,3.0,false,0.0
11134,-0.0087890625,-0.024902344,-1.0371094,-0.04363323,1.2983546,-0.31501064,189.0,35.4,-3.9,42.39706,-74.29182,0.0,1,0,0,3.873045,3.0,false,0.0
11134,-0.0087890625,-0.024902344,-1.0371094,-0.04363323,1.2983546,-0.31501064,189.0,35.4,-3.9,42.39706,-74.29182,0.0,1,0,0,3.873045,3.0,false,0.0
11134,-0.0087890625,-0.024902344,-1.0371094,-0.04363323,1.2983546,-0.31501064,189.0,35.4,-3.9,42.39706,-74.29182,0.0,1,0,0,3.873045,3.0,false,0.0
11134,-0.0087890625,-0.024902344,-1.0371094,-0.04363323,1.2983546,-0.31501064,189.0,35.4,-3.9,42.39706,-74.29182,0.0,1,0,0,3.873045,3.0,false,0.0
11135,-0.0087890625,-0.024902344,-1.0371094,-0.04363323,1.2983546,-0.31501064,189.0,35.4,-3.9,42.39706,-74.29182,0.0,1,0,0,3.873045,3.0,false,0.0
11135,-0.0087890625,-0.024902344,-1.0371094,-0.04363323,1.2983546,-0.31501064,189.0,35.4,-3.9,42.39706,-74.29182,0.0,1,0,0,3.873045,3.0,false,0.0
11135,-0.0087890625,-0.024902344,-1.0371094,-0.04363323,1.2983546,-0.31501064,189.0,35.4,-3.9,42.39706,-74.29182,0.0,1,0,0,3.873045,3.0,false,0.0
11135,-0.0087890625,-0.024902344,-1.0371094,-0.04363323,1.2983546,-0.31501064,189.0,35.4,-3.9,42.39706,-74.29182,0.0,1,0,0,3.873045,3.0,false,0.0
11135,-0.0087890625,-0.024902344,-1.0371094,-0.04363323,1.2983546,-0.31501064,189.0,35.4,-3.9,42.39706,-74.29182,0.0,1,0,0,3.873045,3.0,false,0.0
11135,-0.0087890625,-0.024902344,-1.0371094,-0.04363323,1.2983546,-0.31501064,189.0,35.4,-3.9,42.39706,-74.29182,0.0,1,0,0,3.873045,3.0,false,0.0
11135,-0.0087890625,-0.024902344,-1.0371094,-0.04363323,1.2983546,-0.31501064,189.0,35.4,-3.9,42.39706,-74.29182,0.0,1,0,0,3.873045,3.0,false,0.0
11135,-0.0087890625,-0.024902344,-1.0371094,-0.04363323,1.2983546,-0.31501064,189.0,35.4,-3.9,42.39706,-74.29182,0.0,1,0,0,3.873045,3.0,false,0.0
11135,-0.0087890625,-0.024902344,-1.0371094,-0.04363323,1.2983546,-0.31501064,189.0,35.4,-3.9,42.39706,-74.29182,0.0,1,0,0,3.873045,3.0,false,0.0
11135,-0.0087890625,-0.024902344,-1.0371094,-0.04363323,1.2983546,-0.31501064,189.0,35.4,-3.9,42.39706,-74.29182,0.0,1,0,0,3.873045,3.0,false,0.0
11135,-0.0087890625,-0.024902344,-1.0371094,-0.04363323,1.2983546,-0.31501064,189.0,35.4,-3.9,42.39706,-74.29182,0.0,1,0,0,3.873045,3.0,false,0.0
11135,-0.0087890625,-0.024902344,-1.0371094,-0.04363323,1.2983546,-0.31501064,189.0,35.4,-3.9,42.39706,-74.29182,0.0,1,0,0,3.873045,3.0,false,0.0
11136,-0.0087890625,-0.024902344,-1.0371094,-0.04363323,1.2983546,-0.31501064,189.0,35.4,-3.9,42.39706,-74.29182,0.0,1,0,0,3.873045,3.0,false,0.0
11136,-0.0087890625,-0.024902344,-1.0371094,-0.04363323,1.2983546,-0.31501064,189.0,35.4,-3.9,42.39706,-74.29182,0.0,1,0,0,3.873045,3.0,false,0.0
11136,-0.0087890625,-0.024902344,-1.0371094,-0.04363323,1.2983546,-0.31501064,189.0,35.4,-3.9,42.39706,-74.29182,0.0,1,0,0,3.873045,3.0,false,0.0
11136,-0.0087890625,-0.024902344,-1.0371094,-0.04363323,1.2983546,-0.31501064,189.0,35.4,-3.9,42.39706,-74.29182,0.0,1,0,0,3.873045,3.0,false,0.0
11136,-0.0087890625,-0.024902344,-1.0371094,-0.04363323,1.2983546,-0.31501064,189.0,35.4,-3.9,42.39706,-74.29182,0.0,1,0,0,3.873045,3.0,false,0.0
11136,-0.0087890625,-0.024902344,-1.0371094,-0.04363323,1.2983546,-0.31501064,189.0,35.4,-3.9,42.39706,-74.29182,0.0,1,0,0,3.873045,3.0,false,0.0
11136,-0.0087890625,-0.024902344,-1.0371094,-0.04363323,1.2983546,-0.31501064,189.0,35.4,-3.9,42.39706,-74.29182,0.0,1,0,0,3.873045,3.0,false,0.0
11136,-0.0087890625,-0.024902344,-1.0371094,-0.04363323,1.2983546,-0.31501064,189.0,35.4,-3.9,42.39706,-74.29182,0.0,1,0,0,3.873045,3.0,false,0.0
11136,-0.008300781,-0.029296875,-1.0375977,-0.046825908,1.2994189,-0.31501064,190.20001,34.5,-7.8,42.414707,-74.29182,0.0,1,0,0,3.8905928,3.0116732,false,0.0
11178,-0.008300781,-0.029296875,-1.0375977,-0.046825908,1.2994189,-0.31501064,190.20001,34.5,-7.8,42.414707,-74.29182,0.0,1,0,0,3.8905928,3.0116732,false,0.0
11178,-0.008300781,-0.029296875,-1.0375977,-0.046825908,1.2994189,-0.31501064,190.20001,34.5,-7.8,42.414707,-74.29182,0.0,1,0,0,3.8905928,3.0116732,false,0.0
11178,-0.008300781,-0.029296875,-1.0375977,-0.046825908,1.2994189,-0.31501064,190.20001,34.5,-7.8,42.414707,-74.29182,0.0,1,0,0,3.8905928,3.0116732,false,0.0
11178,-0.008300781,-0.029296875,-1.0375977,-0.046825908,1.2994189,-0.31501064,190.20001,34.5,-7.8,42.414707,-74.29182,0.0,1,0,0,3.8905928,3.0116732,false,0.0
11178,-0.008300781,-0.029296875,-1.0375977,-0.046825908,1.2994189,-0.31501064,190.20001,34.5,-7.8,42.414707,-74.29182,0.0,1,0,0,3.8905928,3.0116732,false,0.0
11178,-0.008300781,-0.029296875,-1.0375977,-0.046825908,1.2994189,-0.31501064,190.20001,34.5,-7.8,42.414707,-74.29182,0.0,1,0,0,3.8905928,3.0116732,false,0.0
11178,-0.008300781,-0.029296875,-1.0375977,-0.046825908,1.2994189,-0.31501064,190.20001,34.5,-7.8,42.414707,-74.29182,0.0,1,0,0,3.8905928,3.0116732,false,0.0
11178,-0.008300781,-0.029296875,-1.0375977,-0.046825908,1.2994189,-0.31501064,190.20001,34.5,-7.8,42.414707,-74.29182,0.0,1,0,0,3.8905928,3.0116732,false,0.0
11178,-0.008300781,-0.029296875,-1.0375977,-0.046825908,1.2994189,-0.31501064,190.20001,34.5,-7.8,42.414707,-74.29182,0.0,1,0,0,3.8905928,3.0116732,false,0.0
11178,-0.008300781,-0.029296875,-1.0375977,-0.046825908,1.2994189,-0.31501064,190.20001,34.5,-7.8,42.414707,-74.29182,0.0,1,0,0,3.8905928,3.0116732,false,0.0
11178,-0.008300781,-0.029296875,-1.0375977,-0.046825908,1.2994189,-0.31501064,190.20001,34.5,-7.8,42.414707,-74.29182,0.0,1,0,0,3.8905928,3.0116732,false,0.0
11178,-0.008300781,-0.029296875,-1.0375977,-0.046825908,1.2994189,-0.31501064,190.20001,34.5,-7.8,42.414707,-74.29182,0.0,1,0,0,3.8905928,3.0116732,false,0.0
11178,-0.008300781,-0.029296875,-1.0375977,-0.046825908,1.2994189,-0.31501064,190.20001,34.5,-7.8,42.414707,-74.29182,0.0,1,0,0,3.8905928,3.0116732,false,0.0
11178,-0.008300781,-0.029296875,-1.0375977,-0.046825908,1.2994189,-0.31501064,190.20001,34.5,-7.8,42.414707,-74.29182,0.0,1,0,0,3.8905928,3.0116732,false,0.0
11178,-0.008300781,-0.029296875,-1.0375977,-0.046825908,1.2994189,-0.31501064,190.20001,34.5,-7.8,42.414707,-74.29182,0.0,1,0,0,3.8905928,3.0116732,false,0.0
11178,-0.008300781,-0.029296875,-1.0375977,-0.046825908,1.2994189,-0.31501064,190.20001,34.5,-7.8,42.414707,-74.29182,0.0,1,0,0,3.8905928,3.0116732,false,0.0
11178,-0.008300781,-0.029296875,-1.0375977,-0.046825908,1.2994189,-0.31501064,190.20001,34.5,-7.8,42.414707,-74.29182,0.0,1,0,0,3.8905928,3.0116732,false,0.0
11178,-0.008300781,-0.029296875,-1.0375977,-0.046825908,1.2994189,-0.31501064,190.20001,34.5,-7.8,42.414707,-74.29182,0.0,1,0,0,3.8905928,3.0116732,false,0.0
11178,-0.008300781,-0.029296875,-1.0375977,-0.046825908,1.2994189,-0.31501064,190.20001,34.5,-7.8,42.414707,-74.29182,0.0,1,0,0,3.8905928,3.0116732,false,0.0
11178,-0.008300781,-0.029296875,-1.0375977,-0.046825908,1.2994189,-0.31501064,190.20001,34.5,-7.8,42.414707,-74.29182,0.0,1,0,0,3.8905928,3.0116732,false,0.0
11178,-0.008300781,-0.029296875,-1.0375977,-0.046825908,1.2994189,-0.31501064,190.20001,34.5,-7.8,42.414707,-74.29182,0.0,1,0,0,3.8905928,3.0116732,false,0.0
11178,-0.008300781,-0.029296875,-1.0375977,-0.046825908,1.2994189,-0.31501064,190.20001,34.5,-7.8,42.414707,-74.29182,0.0,1,0,0,3.8905928,3.0116732,false,0.0
11178,-0.008300781,-0.029296875,-1.0375977,-0.046825908,1.2994189,-0.31501064,190.20001,34.5,-7.8,42.414707,-74.29182,0.0,1,0,0,3.8905928,3.0116732,false,0.0
11178,-0.008300781,-0.029296875,-1.0375977,-0.046825908,1.2994189,-0.31501064,190.20001,34.5,-7.8,42.414707,-74.29182,0.0,1,0,0,3.8905928,3.0116732,false,0.0
11178,-0.008300781,-0.029296875,-1.0375977,-0.046825908,1.2994189,-0.31501064,190.20001,34.5,-7.8,42.414707,-74.29182,0.0,1,0,0,3.8905928,3.0116732,false,0.0
11178,-0.008300781,-0.029296875,-1.0375977,-0.046825908,1.2994189,-0.31501064,190.20001,34.5,-7.8,42.414707,-74.29182,0.0,1,0,0,3.8905928,3.0116732,false,0.0
11179,-0.008300781,-0.029296875,-1.0375977,-0.046825908,1.2994189,-0.31501064,190.20001,34.5,-7.8,42.414707,-74.29182,0.0,1,0,0,3.8905928,3.0116732,false,0.0
11179,-0.008300781,-0.029296875,-1.0375977,-0.046825908,1.2994189,-0.31501064,190.20001,34.5,-7.8,42.414707,-74.29182,0.0,1,0,0,3.8905928,3.0116732,false,0.0
11179,-0.008300781,-0.029296875,-1.0375977,-0.046825908,1.2994189,-0.31501064,190.20001,34.5,-7.8,42.414707,-74.29182,0.0,1,0,0,3.8905928,3.0116732,false,0.0
11179,-0.008300781,-0.029296875,-1.0375977,-0.046825908,1.2994189,-0.31501064,190.20001,34.5,-7.8,42.414707,-74.29182,0.0,1,0,0,3.8905928,3.0116732,false,0.0
11179,-0.008300781,-0.029296875,-1.0375977,-0.046825908,1.2994189,-0.31501064,190.20001,34.5,-7.8,42.414707,-74.29182,0.0,1,0,0,3.8905928,3.0116732,false,0.0
11179,-0.008300781,-0.029296875,-1.0375977,-0.046825908,1.2994189,-0.31501064,190.20001,34.5,-7.8,42.414707,-74.29182,0.0,1,0,0,3.8905928,3.0116732,false,0.0
11179,-0.008300781,-0.029296875,-1.0375977,-0.046825908,1.2994189,-0.31501064,190.20001,34.5,-7.8,42.414707,-74.29182,0.0,1,0,0,3.8905928,3.0116732,false,0.0
11179,-0.008300781,-0.029296875,-1.0375977,-0.046825908,1.2994189,-0.31501064,190.20001,34.5,-7.8,42.414707,-74.29182,0.0,1,0,0,3.8905928,3.0116732,false,0.0
11179,-0.008300781,-0.029296875,-1.0375977,-0.046825908,1.2994189,-0.31501064,190.20001,34.5,-7.8,42.414707,-74.29182,0.0,1,0,0,3.8905928,3.0116732,false,0.0
11179,-0.008300781,-0.029296875,-1.0375977,-0.046825908,1.2994189,-0.31501064,190.20001,34.5,-7.8,42.414707,-74.29182,0.0,1,0,0,3.8905928,3.0116732,false,0.0
11179,-0.008300781,-0.029296875,-1.0375977,-0.046825908,1.2994189,-0.31501064,190.20001,34.5,-7.8,42.414707,-74.29182,0.0,1,0,0,3.8905928,3.0116732,false,0.0
11179,-0.008300781,-0.029296875,-1.0375977,-0.046825908,1.2994189,-0.31501064,190.20001,34.5,-7.8,42.414707,-74.29182,0.0,1,0,0,3.8905928,3.0116732,false,0.0
11179,-0.008300781,-0.029296875,-1.0375977,-0.046825908,1.2994189,-0.31501064,190.20001,34.5,-7.8,42.414707,-74.29182,0.0,1,0,0,3.8905928,3.0116732,false,0.0
11179,-0.008300781,-0.029296875,-1.0375977,-0.046825908,1.2994189,-0.31501064,190.20001,34.5,-7.8,42.414707,-74.29182,0.0,1,0,0,3.8905928,3.0116732,false,0.0
11179,-0.008300781,-0.029296875,-1.0375977,-0.046825908,1.2994189,-0.31501064,190.20001,34.5,-7.8,42.414707,-74.29182,0.0,1,0,0,3.8905928,3.0116732,false,0.0
11179,-0.008300781,-0.029296875,-1.0375977,-0.046825908,1.2994189,-0.31501064,190.20001,34.5,-7.8,42.414707,-74.29182,0.0,1,0,0,3.8905928,3.0116732,false,0.0
11179,-0.0087890625,-0.02734375,-1.0361328,-0.046825908,1.2994189,-0.3128822,189.6,33.600002,-3.6000001,42.41765,-74.29182,0.0,1,0,0,3.8788433,3.0116732,false,0.0
11226,-0.0087890625,-0.02734375,-1.0361328,-0.046825908,1.2994189,-0.3128822,189.6,33.600002,-3.6000001,42.41765,-74.29182,0.0,1,0,0,3.8788433,3.0116732,false,0.0
11226,-0.0087890625,-0.02734375,-1.0361328,-0.046825908,1.2994189,-0.3128822,189.6,33.600002,-3.6000001,42.41765,-74.29182,0.0,1,0,0,3.8788433,3.0116732,false,0.0
11226,-0.0087890625,-0.02734375,-1.0361328,-0.046825908,1.2994189,-0.3128822,189.6,33.600002,-3.6000001,42.41765,-74.29182,0.0,1,0,0,3.8788433,3.0116732,false,0.0
11226,-0.0087890625,-0.02734375,-1.0361328,-0.046825908,1.2994189,-0.3128822,189.6,33.600002,-3.6000001,42.41765,-74.29182,0.0,1,0,0,3.8788433,3.0116732,false,0.0
11226,-0.0087890625,-0.02734375,-1.0361328,-0.046825908,1.2994189,-0.3128822,189.6,33.600002,-3.6000001,42.41765,-74.29182,0.0,1,0,0,3.8788433,3.0116732,false,0.0
11226,-0.0087890625,-0.02734375,-1.0361328,-0.046825908,1.2994189,-0.3128822,189.6,33.600002,-3.6000001,42.41765,-74.29182,0.0,1,0,0,3.8788433,3.0116732,false,0.0
11226,-0.0087890625,-0.02734375,-1.0361328,-0.046825908,1.2994189,-0.3128822,189.6,33.600002,-3.6000001,42.41765,-74.29182,0.0,1,0,0,3.8788433,3.0116732,false,0.0
11226,-0.0087890625,-0.02734375,-1.0361328,-0.046825908,1.2994189,-0.3128822,189.6,33.600002,-3.6000001,42.41765,-74.29182,0.0,1,0,0,3.8788433,3.0116732,false,0.0
11226,-0.0087890625,-0.02734375,-1.0361328,-0.046825908,1.2994189,-0.3128822,189.6,33.600002,-3.6000001,42.41765,-74.29182,0.0,1,0,0,3.8788433,3.0116732,false,0.0
11226,-0.0087890625,-0.02734375,-1.0361328,-0.046825908,1.2994189,-0.3128822,189.6,33.600002,-3.6000001,42.41765,-74.29182,0.0,1,0,0,3.8788433,3.0116732,false,0.0
11226,-0.0087890625,-0.02734375,-1.0361328,-0.046825908,1.2994189,-0.3128822,189.6,33.600002,-3.6000001,42.41765,-74.29182,0.0,1,0,0,3.8788433,3.0116732,false,0.0
11226,-0.0087890625,-0.02734375,-1.0361328,-0.046825908,1.2994189,-0.3128822,189.6,33.600002,-3.6000001,42.41765,-74.29182,0.0,1,0,0,3.8788433,3.0116732,false,0.0
11226,-0.0087890625,-0.02734375,-1.0361328,-0.046825908,1.2994189,-0.3128822,189.6,33.600002,-3.6000001,42.41765,-74.29182,0.0,1,0,0,3.8788433,3.0116732,false,0.0
11226,-0.0087890625,-0.02734375,-1.0361328,-0.046825908,1.2994189,-0.3128822,189.6,33.600002,-3.6000001,42.41765,-74.29182,0.0,1,0,0,3.8788433,3.0116732,false,0.0
11227,-0.0087890625,-0.02734375,-1.0361328,-0.046825908,1.2994189,-0.3128822,189.6,33.600002,-3.6000001,42.41765,-74.29182,0.0,1,0,0,3.8788433,3.0116732,false,0.0
11227,-0.0087890625,-0.02734375,-1.0361328,-0.046825908,1.2994189,-0.3128822,189.6,33.600002,-3.6000001,42.41765,-74.29182,0.0,1,0,0,3.8788433,3.0116732,false,0.0
11227,-0.0087890625,-0.02734375,-1.0361328,-0.046825908,1.2994189,-0.3128822,189.6,33.600002,-3.6000001,42.41765,-74.29182,0.0,1,0,0,3.8788433,3.0116732,false,0.0
11227,-0.0087890625,-0.02734375,-1.0361328,-0.046825908,1.2994189,-0.3128822,189.6,33.600002,-3.6000001,42.41765,-74.29182,0.0,1,0,0,3.8788433,3.0116732,false,0.0
11227,-0.0087890625,-0.02734375,-1.0361328,-0.046825908,1.2994189,-0.3128822,189.6,33.600002,-3.6000001,42.41765,-74.29182,0.0,1,0,0,3.8788433,3.0116732,false,0.0
11227,-0.0087890625,-0.02734375,-1.0361328,-0.046825908,1.2994189,-0.3128822,189.6,33.600002,-3.6000001,42.41765,-74.29182,0.0,1,0,0,3.8788433,3.0116732,false,0.0
11227,-0.0087890625,-0.02734375,-1.0361328,-0.046825908,1.2994189,-0.3128822,189.6,33.600002,-3.6000001,42.41765,-74.29182,0.0,1,0,0,3.8788433,3.0116732,false,0.0
11227,-0.0087890625,-0.02734375,-1.0361328,-0.046825908,1.2994189,-0.3128822,189.6,33.600002,-3.6000001,42.41765,-74.29182,0.0,1,0,0,3.8788433,3.0116732,false,0.0
11227,-0.0087890625,-0.02734375,-1.0361328,-0.046825908,1.2994189,-0.3128822,189.6,33.600002,-3.6000001,42.41765,-74.29182,0.0,1,0,0,3.8788433,3.0116732,false,0.0
11227,-0.0087890625,-0.02734375,-1.0361328,-0.046825908,1.2994189,-0.3128822,189.6,33.600002,-3.6000001,42.41765,-74.29182,0.0,1,0,0,3.8788433,3.0116732,false,0.0
11227,-0.0087890625,-0.02734375,-1.0361328,-0.046825908,1.2994189,-0.3128822,189.6,33.600002,-3.6000001,42.41765,-74.29182,0.0,1,0,0,3.8788433,3.0116732,false,0.0
11227,-0.0087890625,-0.02734375,-1.0361328,-0.046825908,1.2994189,-0.3128822,189.6,33.600002,-3.6000001,42.41765,-74.29182,0.0,1,0,0,3.8788433,3.0116732,false,0.0
11227,-0.0087890625,-0.02734375,-1.0361328,-0.046825908,1.2994189,-0.3128822,189.6,33.600002,-3.6000001,42.41765,-74.29182,0.0,1,0,0,3.8788433,3.0116732,false,0.0
11227,-0.0087890625,-0.02734375,-1.0361328,-0.046825908,1.2994189,-0.3128822,189.6,33.600002,-3.6000001,42.41765,-74.29182,0.0,1,0,0,3.8788433,3.0116732,false,0.0
11227,-0.0087890625,-0.02734375,-1.0361328,-0.046825908,1.2994189,-0.3128822,189.6,33.600002,-3.6000001,42.41765,-74.29182,0.0,1,0,0,3.8788433,3.0116732,false,0.0
11227,-0.0087890625,-0.02734375,-1.0361328,-0.046825908,1.2994189,-0.3128822,189.6,33.600002,-3.6000001,42.41765,-74.29182,0.0,1,0,0,3.8788433,3.0116732,false,0.0
11227,-0.0087890625,-0.02734375,-1.0361328,-0.046825908,1.2994189,-0.3128822,189.6,33.600002,-3.6000001,42.41765,-74.29182,0.0,1,0,0,3.8788433,3.0116732,false,0.0
11227,-0.0087890625,-0.02734375,-1.0361328,-0.046825908,1.2994189,-0.3128822,189.6,33.600002,-3.6000001,42.41765,-74.29182,0.0,1,0,0,3.8788433,3.0116732,false,0.0
11227,-0.0087890625,-0.02734375,-1.0361328,-0.046825908,1.2994189,-0.3128822,189.6,33.600002,-3.6000001,42.41765,-74.29182,0.0,1,0,0,3.8788433,3.0116732,false,0.0
11227,-0.0087890625,-0.02734375,-1.0361328,-0.046825908,1.2994189,-0.3128822,189.6,33.600002,-3.6000001,42.41765,-74.29182,0.0,1,0,0,3.8788433,3.0116732,false,0.0
11227,-0.0087890625,-0.02734375,-1.0361328,-0.046825908,1.2994189,-0.3128822,189.6,33.600002,-3.6000001,42.41765,-74.29182,0.0,1,0,0,3.8788433,3.0116732,false,0.0
11227,-0.0087890625,-0.02734375,-1.0361328,-0.046825908,1.2994189,-0.3128822,189.6,33.600002,-3.6000001,42.41765,-74.29182,0.0,1,0,0,3.8788433,3.0116732,false,0.0
11227,-0.0087890625,-0.02734375,-1.0361328,-0.046825908,1.2994189,-0.3128822,189.6,33.600002,-3.6000001,42.41765,-74.29182,0.0,1,0,0,3.8788433,3.0116732,false,0.0
11227,-0.0087890625,-0.02734375,-1.0361328,-0.046825908,1.2994189,-0.3128822,189.6,33.600002,-3.6000001,42.41765,-74.29182,0.0,1,0,0,3.8788433,3.0116732,false,0.0
11227,-0.0087890625,-0.02734375,-1.0361328,-0.046825908,1.2994189,-0.3128822,189.6,33.600002,-3.6000001,42.41765,-74.29182,0.0,1,0,0,3.8788433,3.0116732,false,0.0
11227,-0.0087890625,-0.02734375,-1.0361328,-0.046825908,1.2994189,-0.3128822,189.6,33.600002,-3.6000001,42.41765,-74.29182,0.0,1,0,0,3.8788433,3.0116732,false,0.0
11227,-0.0087890625,-0.02734375,-1.0361328,-0.046825908,1.2994189,-0.3128822,189.6,33.600002,-3.6000001,42.41765,-74.29182,0.0,1,0,0,3.8788433,3.0116732,false,0.0
11228,-0.0087890625,-0.02734375,-1.0361328,-0.046825908,1.2994189,-0.3128822,189.6,33.600002,-3.6000001,42.41765,-74.29182,0.0,1,0,0,3.8788433,3.0116732,false,0.0
11228,-0.009277344,-0.023925781,-1.0361328,-0.044697456,1.3015474,-0.3128822,190.5,35.4,-2.1000001,42.402943,-74.29182,0.0,1,0,0,3.873045,3.0,false,0.0
11273,-0.009277344,-0.023925781,-1.0361328,-0.044697456,1.3015474,-0.3128822,190.5,35.4,-2.1000001,42.402943,-74.29182,0.0,1,0,0,3.873045,3.0,false,0.0
11273,-0.009277344,-0.023925781,-1.0361328,-0.044697456,1.3015474,-0.3128822,190.5,35.4,-2.1000001,42.402943,-74.29182,0.0,1,0,0,3.873045,3.0,false,0.0
11273,-0.009277344,-0.023925781,-1.0361328,-0.044697456,1.3015474,-0.3128822,190.5,35.4,-2.1000001,42.402943,-74.29182,0.0,1,0,0,3.873045,3.0,false,0.0
11273,-0.009277344,-0.023925781,-1.0361328,-0.044697456,1.3015474,-0.3128822,190.5,35.4,-2.1000001,42.402943,-74.29182,0.0,1,0,0,3.873045,3.0,false,0.0
11273,-0.009277344,-0.023925781,-1.0361328,-0.044697456,1.3015474,-0.3128822,190.5,35.4,-2.1000001,42.402943,-74.29182,0.0,1,0,0,3.873045,3.0,false,0.0
11273,-0.009277344,-0.023925781,-1.0361328,-0.044697456,1.3015474,-0.3128822,190.5,35.4,-2.1000001,42.402943,-74.29182,0.0,1,0,0,3.873045,3.0,false,0.0
11287,-0.009277344,-0.023925781,-1.0361328,-0.044697456,1.3015474,-0.3128822,190.5,35.4,-2.1000001,42.402943,-74.29182,0.0,1,0,0,3.873045,3.0,false,0.0
11287,-0.009277344,-0.023925781,-1.0361328,-0.044697456,1.3015474,-0.3128822,190.5,35.4,-2.1000001,42.402943,-74.29182,0.0,1,0,0,3.873045,3.0,false,0.0
11287,-0.009277344,-0.023925781,-1.0361328,-0.044697456,1.3015474,-0.3128822,190.5,35.4,-2.1000001,42.402943,-74.29182,0.0,1,0,0,3.873045,3.0,false,0.0
11287,-0.009277344,-0.023925781,-1.0361328,-0.044697456,1.3015474,-0.3128822,190.5,35.4,-2.1000001,42.402943,-74.29182,0.0,1,0,0,3.873045,3.0,false,0.0
11287,-0.009277344,-0.023925781,-1.0361328,-0.044697456,1.3015474,-0.3128822,190.5,35.4,-2.1000001,42.402943,-74.29182,0.0,1,0,0,3.873045,3.0,false,0.0
11287,-0.009277344,-0.023925781,-1.0361328,-0.044697456,1.3015474,-0.3128822,190.5,35.4,-2.1000001,42.402943,-74.29182,0.0,1,0,0,3.873045,3.0,false,0.0
11287,-0.009277344,-0.023925781,-1.0361328,-0.044697456,1.3015474,-0.3128822,190.5,35.4,-2.1000001,42.402943,-74.29182,0.0,1,0,0,3.873045,3.0,false,0.0
11287,-0.009277344,-0.023925781,-1.0361328,-0.044697456,1.3015474,-0.3128822,190.5,35.4,-2.1000001,42.402943,-74.29182,0.0,1,0,0,3.873045,3.0,false,0.0
11287,-0.009277344,-0.023925781,-1.0361328,-0.044697456,1.3015474,-0.3128822,190.5,35.4,-2.1000001,42.402943,-74.29182,0.0,1,0,0,3.873045,3.0,false,0.0
11287,-0.009277344,-0.023925781,-1.0361328,-0.044697456,1.3015474,-0.3128822,190.5,35.4,-2.1000001,42.402943,-74.29182,0.0,1,0,0,3.873045,3.0,false,0.0
11287,-0.009277344,-0.023925781,-1.0361328,-0.044697456,1.3015474,-0.3128822,190.5,35.4,-2.1000001,42.402943,-74.29182,0.0,1,0,0,3.873045,3.0,false,0.0
11287,-0.009277344,-0.023925781,-1.0361328,-0.044697456,1.3015474,-0.3128822,190.5,35.4,-2.1000001,42.402943,-74.29182,0.0,1,0,0,3.873045,3.0,false,0.0
11287,-0.009277344,-0.023925781,-1.0361328,-0.044697456,1.3015474,-0.3128822,190.5,35.4,-2.1000001,42.402943,-74.29182,0.0,1,0,0,3.873045,3.0,false,0.0
11287,-0.009277344,-0.023925781,-1.0361328,-0.044697456,1.3015474,-0.3128822,190.5,35.4,-2.1000001,42.402943,-74.29182,0.0,1,0,0,3.873045,3.0,false,0.0
11287,-0.009277344,-0.023925781,-1.0361328,-0.044697456,1.3015474,-0.3128822,190.5,35.4,-2.1000001,42.402943,-74.29182,0.0,1,0,0,3.873045,3.0,false,0.0
11287,-0.009277344,-0.023925781,-1.0361328,-0.044697456,1.3015474,-0.3128822,190.5,35.4,-2.1000001,42.402943,-74.29182,0.0,1,0,0,3.873045,3.0,false,0.0
11287,-0.009277344,-0.023925781,-1.0361328,-0.044697456,1.3015474,-0.3128822,190.5,35.4,-2.1000001,42.402943,-74.29182,0.0,1,0,0,3.873045,3.0,false,0.0
11287,-0.009277344,-0.023925781,-1.0361328,-0.044697456,1.3015474,-0.3128822,190.5,35.4,-2.1000001,42.402943,-74.29182,0.0,1,0,0,3.873045,3.0,false,0.0
11287,-0.009277344,-0.023925781,-1.0361328,-0.044697456,1.3015474,-0.3128822,190.5,35.4,-2.1000001,42.402943,-74.29182,0.0,1,0,0,3.873045,3.0,false,0.0
11287,-0.009277344,-0.023925781,-1.0361328,-0.044697456,1.3015474,-0.3128822,190.5,35.4,-2.1000001,42.402943,-74.29182,0.0,1,0,0,3.873045,3.0,false,0.0
11287,-0.009277344,-0.023925781,-1.0361328,-0.044697456,1.3015474,-0.3128822,190.5,35.4,-2.1000001,42.402943,-74.29182,0.0,1,0,0,3.873045,3.0,false,0.0
11287,-0.009277344,-0.023925781,-1.0361328,-0.044697456,1.3015474,-0.3128822,190.5,35.4,-2.1000001,42.402943,-74.29182,0.0,1,0,0,3.873045,3.0,false,0.0
11287,-0.009277344,-0.023925781,-1.0361328,-0.044697456,1.3015474,-0.3128822,190.5,35.4,-2.1000001,42.402943,-74.29182,0.0,1,0,0,3.873045,3.0,false,0.0
11287,-0.009277344,-0.023925781,-1.0361328,-0.044697456,1.3015474,-0.3128822,190.5,35.4,-2.1000001,42.402943,-74.29182,0.0,1,0,0,3.873045,3.0,false,0.0
11287,-0.009277344,-0.023925781,-1.0361328,-0.044697456,1.3015474,-0.3128822,190.5,35.4,-2.1000001,42.402943,-74.29182,0.0,1,0,0,3.873045,3.0,false,0.0
11287,-0.009277344,-0.023925781,-1.0361328,-0.044697456,1.3015474,-0.3128822,190.5,35.4,-2.1000001,42.402943,-74.29182,0.0,1,0,0,3.873045,3.0,false,0.0
11287,-0.009277344,-0.023925781,-1.0361328,-0.044697456,1.3015474,-0.3128822,190.5,35.4,-2.1000001,42.402943,-74.29182,0.0,1,0,0,3.873045,3.0,false,0.0
11287,-0.009277344,-0.023925781,-1.0361328,-0.044697456,1.3015474,-0.3128822,190.5,35.4,-2.1000001,42.402943,-74.29182,0.0,1,0,0,3.873045,3.0,false,0.0
11287,-0.009277344,-0.023925781,-1.0361328,-0.044697456,1.3015474,-0.3128822,190.5,35.4,-2.1000001,42.402943,-74.29182,0.0,1,0,0,3.873045,3.0,false,0.0
11287,-0.009277344,-0.023925781,-1.0361328,-0.044697456,1.3015474,-0.3128822,190.5,35.4,-2.1000001,42.402943,-74.29182,0.0,1,0,0,3.873045,3.0,false,0.0
11287,-0.009277344,-0.023925781,-1.0361328,-0.044697456,1.3015474,-0.3128822,190.5,35.4,-2.1000001,42.402943,-74.29182,0.0,1,0,0,3.873045,3.0,false,0.0
11287,-0.009277344,-0.023925781,-1.0361328,-0.044697456,1.3015474,-0.3128822,190.5,35.4,-2.1000001,42.402943,-74.29182,0.0,1,0,0,3.873045,3.0,false,0.0
11287,-0.009277344,-0.023925781,-1.0361328,-0.044697456,1.3015474,-0.3128822,190.5,35.4,-2.1000001,42.402943,-74.29182,0.0,1,0,0,3.873045,3.0,false,0.0
11287,-0.009277344,-0.023925781,-1.0361328,-0.044697456,1.3015474,-0.3128822,190.5,35.4,-2.1000001,42.402943,-74.29182,0.0,1,0,0,3.873045,3.0,false,0.0
11288,-0.009277344,-0.023925781,-1.0361328,-0.044697456,1.3015474,-0.3128822,190.5,35.4,-2.1000001,42.402943,-74.29182,0.0,1,0,0,3.873045,3.0,false,0.0
11288,-0.009277344,-0.023925781,-1.0361328,-0.044697456,1.3015474,-0.3128822,190.5,35.4,-2.1000001,42.402943,-74.29182,0.0,1,0,0,3.873045,3.0,false,0.0
11288,-0.0078125,-0.024902344,-1.0336914,-0.04363323,1.3004832,-0.3139464,187.20001,33.0,-5.1000004,42.402943,-74.29182,0.0,1,0,0,3.873045,3.0,false,0.0
11325,-0.0078125,-0.024902344,-1.0336914,-0.04363323,1.3004832,-0.3139464,187.20001,33.0,-5.1000004,42.402943,-74.29182,0.0,1,0,0,3.873045,3.0,false,0.0
11326,-0.0078125,-0.024902344,-1.0336914,-0.04363323,1.3004832,-0.3139464,187.20001,33.0,-5.1000004,42.402943,-74.29182,0.0,1,0,0,3.873045,3.0,false,0.0
11326,-0.0078125,-0.024902344,-1.0336914,-0.04363323,1.3004832,-0.3139464,187.20001,33.0,-5.1000004,42.402943,-74.29182,0.0,1,0,0,3.873045,3.0,false,0.0
11326,-0.0078125,-0.024902344,-1.0336914,-0.04363323,1.3004832,-0.3139464,187.20001,33.0,-5.1000004,42.402943,-74.29182,0.0,1,0,0,3.873045,3.0,false,0.0
11326,-0.0078125,-0.024902344,-1.0336914,-0.04363323,1.3004832,-0.3139464,187.20001,33.0,-5.1000004,42.402943,-74.29182,0.0,1,0,0,3.873045,3.0,false,0.0
11326,-0.0078125,-0.024902344,-1.0336914,-0.04363323,1.3004832,-0.3139464,187.20001,33.0,-5.1000004,42.402943,-74.29182,0.0,1,0,0,3.873045,3.0,false,0.0
11326,-0.0078125,-0.024902344,-1.0336914,-0.04363323,1.3004832,-0.3139464,187.20001,33.0,-5.1000004,42.402943,-74.29182,0.0,1,0,0,3.873045,3.0,false,0.0
11326,-0.0078125,-0.024902344,-1.0336914,-0.04363323,1.3004832,-0.3139464,187.20001,33.0,-5.1000004,42.402943,-74.29182,0.0,1,0,0,3.873045,3.0,false,0.0
11326,-0.0078125,-0.024902344,-1.0336914,-0.04363323,1.3004832,-0.3139464,187.20001,33.0,-5.1000004,42.402943,-74.29182,0.0,1,0,0,3.873045,3.0,false,0.0
11326,-0.0078125,-0.024902344,-1.0336914,-0.04363323,1.3004832,-0.3139464,187.20001,33.0,-5.1000004,42.402943,-74.29182,0.0,1,0,0,3.873045,3.0,false,0.0
11326,-0.0078125,-0.024902344,-1.0336914,-0.04363323,1.3004832,-0.3139464,187.20001,33.0,-5.1000004,42.402943,-74.29182,0.0,1,0,0,3.873045,3.0,false,0.0
11326,-0.0078125,-0.024902344,-1.0336914,-0.04363323,1.3004832,-0.3139464,187.20001,33.0,-5.1000004,42.402943,-74.29182,0.0,1,0,0,3.873045,3.0,false,0.0
11326,-0.0078125,-0.024902344,-1.0336914,-0.04363323,1.3004832,-0.3139464,187.20001,33.0,-5.1000004,42.402943,-74.29182,0.0,1,0,0,3.873045,3.0,false,0.0
11326,-0.0078125,-0.024902344,-1.0336914,-0.04363323,1.3004832,-0.3139464,187.20001,33.0,-5.1000004,42.402943,-74.29182,0.0,1,0,0,3.873045,3.0,false,0.0
11326,-0.0078125,-0.024902344,-1.0336914,-0.04363323,1.3004832,-0.3139464,187.20001,33.0,-5.1000004,42.402943,-74.29182,0.0,1,0,0,3.873045,3.0,false,0.0
11326,-0.0078125,-0.024902344,-1.0336914,-0.04363323,1.3004832,-0.3139464,187.20001,33.0,-5.1000004,42.402943,-74.29182,0.0,1,0,0,3.873045,3.0,false,0.0
11326,-0.0078125,-0.024902344,-1.0336914,-0.04363323,1.3004832,-0.3139464,187.20001,33.0,-5.1000004,42.402943,-74.29182,0.0,1,0,0,3.873045,3.0,false,0.0
11326,-0.0078125,-0.024902344,-1.0336914,-0.04363323,1.3004832,-0.3139464,187.20001,33.0,-5.1000004,42.402943,-74.29182,0.0,1,0,0,3.873045,3.0,false,0.0
11326,-0.0078125,-0.024902344,-1.0336914,-0.04363323,1.3004832,-0.3139464,187.20001,33.0,-5.1000004,42.402943,-74.29182,0.0,1,0,0,3.873045,3.0,false,0.0
11326,-0.0078125,-0.024902344,-1.0336914,-0.04363323,1.3004832,-0.3139464,187.20001,33.0,-5.1000004,42.402943,-74.29182,0.0,1,0,0,3.873045,3.0,false,0.0
11326,-0.0078125,-0.024902344,-1.0336914,-0.04363323,1.3004832,-0.3139464,187.20001,33.0,-5.1000004,42.402943,-74.29182,0.0,1,0,0,3.873045,3.0,false,0.0
11326,-0.0078125,-0.024902344,-1.0336914,-0.04363323,1.3004832,-0.3139464,187.20001,33.0,-5.1000004,42.402943,-74.29182,0.0,1,0,0,3.873045,3.0,false,0.0
11326,-0.0078125,-0.024902344,-1.0336914,-0.04363323,1.3004832,-0.3139464,187.20001,33.0,-5.1000004,42.402943,-74.29182,0.0,1,0,0,3.873045,3.0,false,0.0
11326,-0.0078125,-0.024902344,-1.0336914,-0.04363323,1.3004832,-0.3139464,187.20001,33.0,-5.1000004,42.402943,-74.29182,0.0,1,0,0,3.873045,3.0,false,0.0
11326,-0.0078125,-0.024902344,-1.0336914,-0.04363323,1.3004832,-0.3139464,187.20001,33.0,-5.1000004,42.402943,-74.29182,0.0,1,0,0,3.873045,3.0,false,0.0
11326,-0.0078125,-0.024902344,-1.0336914,-0.04363323,1.3004832,-0.3139464,187.20001,33.0,-5.1000004,42.402943,-74.29182,0.0,1,0,0,3.873045,3.0,false,0.0
11326,-0.0078125,-0.024902344,-1.0336914,-0.04363323,1.3004832,-0.3139464,187.20001,33.0,-5.1000004,42.402943,-74.29182,0.0,1,0,0,3.873045,3.0,false,0.0
11326,-0.0078125,-0.024902344,-1.0336914,-0.04363323,1.3004832,-0.3139464,187.20001,33.0,-5.1000004,42.402943,-74.29182,0.0,1,0,0,3.873045,3.0,false,0.0
11339,-0.0078125,-0.024902344,-1.0336914,-0.04363323,1.3004832,-0.3139464,187.20001,33.0,-5.1000004,42.402943,-74.29182,0.0,1,0,0,3.873045,3.0,false,0.0
11339,-0.0078125,-0.024902344,-1.0336914,-0.04363323,1.3004832,-0.3139464,187.20001,33.0,-5.1000004,42.402943,-74.29182,0.0,1,0,0,3.873045,3.0,false,0.0
11339,-0.0078125,-0.024902344,-1.0336914,-0.04363323,1.3004832,-0.3139464,187.20001,33.0,-5.1000004,42.402943,-74.29182,0.0,1,0,0,3.873045,3.0,false,0.0
11339,-0.0078125,-0.024902344,-1.0336914,-0.04363323,1.3004832,-0.3139464,187.20001,33.0,-5.1000004,42.402943,-74.29182,0.0,1,0,0,3.873045,3.0,false,0.0
11339,-0.0078125,-0.024902344,-1.0336914,-0.04363323,1.3004832,-0.3139464,187.20001,33.0,-5.1000004,42.402943,-74.29182,0.0,1,0,0,3.873045,3.0,false,0.0
11339,-0.0078125,-0.024902344,-1.0336914,-0.04363323,1.3004832,-0.3139464,187.20001,33.0,-5.1000004,42.402943,-74.29182,0.0,1,0,0,3.873045,3.0,false,0.0
11339,-0.0078125,-0.024902344,-1.0336914,-0.04363323,1.3004832,-0.3139464,187.20001,33.0,-5.1000004,42.402943,-74.29182,0.0,1,0,0,3.873045,3.0,false,0.0
11339,-0.0078125,-0.024902344,-1.0336914,-0.04363323,1.3004832,-0.3139464,187.20001,33.0,-5.1000004,42.402943,-74.29182,0.0,1,0,0,3.873045,3.0,false,0.0
11339,-0.0078125,-0.024902344,-1.0336914,-0.04363323,1.3004832,-0.3139464,187.20001,33.0,-5.1000004,42.402943,-74.29182,0.0,1,0,0,3.873045,3.0,false,0.0
11339,-0.0078125,-0.024902344,-1.0336914,-0.04363323,1.3004832,-0.3139464,187.20001,33.0,-5.1000004,42.402943,-74.29182,0.0,1,0,0,3.873045,3.0,false,0.0
11339,-0.0078125,-0.024902344,-1.0336914,-0.04363323,1.3004832,-0.3139464,187.20001,33.0,-5.1000004,42.402943,-74.29182,0.0,1,0,0,3.873045,3.0,false,0.0
11339,-0.0078125,-0.024902344,-1.0336914,-0.04363323,1.3004832,-0.3139464,187.20001,33.0,-5.1000004,42.402943,-74.29182,0.0,1,0,0,3.873045,3.0,false,0.0
11339,-0.0078125,-0.024902344,-1.0336914,-0.04363323,1.3004832,-0.3139464,187.20001,33.0,-5.1000004,42.402943,-74.29182,0.0,1,0,0,3.873045,3.0,false,0.0
11339,-0.0078125,-0.024902344,-1.0336914,-0.04363323,1.3004832,-0.3139464,187.20001,33.0,-5.1000004,42.402943,-74.29182,0.0,1,0,0,3.873045,3.0,false,0.0
11339,-0.008300781,-0.026367188,-1.0356445,-0.044697456,1.2994189,-0.3139464,188.70001,33.600002,-5.1000004,42.411766,-74.29182,0.0,1,0,0,3.8788433,3.0175478,false,0.0
11390,-0.008300781,-0.026367188,-1.0356445,-0.044697456,1.2994189,-0.3139464,188.70001,33.600002,-5.1000004,42.411766,-74.29182,0.0,1,0,0,3.8788433,3.0175478,false,0.0
11390,-0.008300781,-0.026367188,-1.0356445,-0.044697456,1.2994189,-0.3139464,188.70001,33.600002,-5.1000004,42.411766,-74.29182,0.0,1,0,0,3.8788433,3.0175478,false,0.0
11390,-0.008300781,-0.026367188,-1.0356445,-0.044697456,1.2994189,-0.3139464,188.70001,33.600002,-5.1000004,42.411766,-74.29182,0.0,1,0,0,3.8788433,3.0175478,false,0.0
11390,-0.008300781,-0.026367188,-1.0356445,-0.044697456,1.2994189,-0.3139464,188.70001,33.600002,-5.1000004,42.411766,-74.29182,0.0,1,0,0,3.8788433,3.0175478,false,0.0
11390,-0.008300781,-0.026367188,-1.0356445,-0.044697456,1.2994189,-0.3139464,188.70001,33.600002,-5.1000004,42.411766,-74.29182,0.0,1,0,0,3.8788433,3.0175478,false,0.0
11390,-0.008300781,-0.026367188,-1.0356445,-0.044697456,1.2994189,-0.3139464,188.70001,33.600002,-5.1000004,42.411766,-74.29182,0.0,1,0,0,3.8788433,3.0175478,false,0.0
11390,-0.008300781,-0.026367188,-1.0356445,-0.044697456,1.2994189,-0.3139464,188.70001,33.600002,-5.1000004,42.411766,-74.29182,0.0,1,0,0,3.8788433,3.0175478,false,0.0
11390,-0.008300781,-0.026367188,-1.0356445,-0.044697456,1.2994189,-0.3139464,188.70001,33.600002,-5.1000004,42.411766,-74.29182,0.0,1,0,0,3.8788433,3.0175478,false,0.0
11390,-0.008300781,-0.026367188,-1.0356445,-0.044697456,1.2994189,-0.3139464,188.70001,33.600002,-5.1000004,42.411766,-74.29182,0.0,1,0,0,3.8788433,3.0175478,false,0.0
11390,-0.008300781,-0.026367188,-1.0356445,-0.044697456,1.2994189,-0.3139464,188.70001,33.600002,-5.1000004,42.411766,-74.29182,0.0,1,0,0,3.8788433,3.0175478,false,0.0
11391,-0.008300781,-0.026367188,-1.0356445,-0.044697456,1.2994189,-0.3139464,188.70001,33.600002,-5.1000004,42.411766,-74.29182,0.0,1,0,0,3.8788433,3.0175478,false,0.0
11391,-0.008300781,-0.026367188,-1.0356445,-0.044697456,1.2994189,-0.3139464,188.70001,33.600002,-5.1000004,42.411766,-74.29182,0.0,1,0,0,3.8788433,3.0175478,false,0.0
11391,-0.008300781,-0.026367188,-1.0356445,-0.044697456,1.2994189,-0.3139464,188.70001,33.600002,-5.1000004,42.411766,-74.29182,0.0,1,0,0,3.8788433,3.0175478,false,0.0
11391,-0.008300781,-0.026367188,-1.0356445,-0.044697456,1.2994189,-0.3139464,188.70001,33.600002,-5.1000004,42.411766,-74.29182,0.0,1,0,0,3.8788433,3.0175478,false,0.0
11391,-0.008300781,-0.026367188,-1.0356445,-0.044697456,1.2994189,-0.3139464,188.70001,33.600002,-5.1000004,42.411766,-74.29182,0.0,1,0,0,3.8788433,3.0175478,false,0.0
11391,-0.008300781,-0.026367188,-1.0356445,-0.044697456,1.2994189,-0.3139464,188.70001,33.600002,-5.1000004,42.411766,-74.29182,0.0,1,0,0,3.8788433,3.0175478,false,0.0
11391,-0.008300781,-0.026367188,-1.0356445,-0.044697456,1.2994189,-0.3139464,188.70001,33.600002,-5.1000004,42.411766,-74.29182,0.0,1,0,0,3.8788433,3.0175478,false,0.0
11391,-0.008300781,-0.026367188,-1.0356445,-0.044697456,1.2994189,-0.3139464,188.70001,33.600002,-5.1000004,42.411766,-74.29182,0.0,1,0,0,3.8788433,3.0175478,false,0.0
11391,-0.008300781,-0.026367188,-1.0356445,-0.044697456,1.2994189,-0.3139464,188.70001,33.600002,-5.1000004,42.411766,-74.29182,0.0,1,0,0,3.8788433,3.0175478,false,0.0
11391,-0.008300781,-0.026367188,-1.0356445,-0.044697456,1.2994189,-0.3139464,188.70001,33.600002,-5.1000004,42.411766,-74.29182,0.0,1,0,0,3.8788433,3.0175478,false,0.0
11391,-0.008300781,-0.026367188,-1.0356445,-0.044697456,1.2994189,-0.3139464,188.70001,33.600002,-5.1000004,42.411766,-74.29182,0.0,1,0,0,3.8788433,3.0175478,false,0.0
11391,-0.008300781,-0.026367188,-1.0356445,-0.044697456,1.2994189,-0.3139464,188.70001,33.600002,-5.1000004,42.411766,-74.29182,0.0,1,0,0,3.8788433,3.0175478,false,0.0
11393,-0.008300781,-0.026367188,-1.0356445,-0.044697456,1.2994189,-0.3139464,188.70001,33.600002,-5.1000004,42.411766,-74.29182,0.0,1,0,0,3.8788433,3.0175478,false,0.0
11393,-0.008300781,-0.026367188,-1.0356445,-0.044697456,1.2994189,-0.3139464,188.70001,33.600002,-5.1000004,42.411766,-74.29182,0.0,1,0,0,3.8788433,3.0175478,false,0.0
11393,-0.008300781,-0.026367188,-1.0356445,-0.044697456,1.2994189,-0.3139464,188.70001,33.600002,-5.1000004,42.411766,-74.29182,0.0,1,0,0,3.8788433,3.0175478,false,0.0
11393,-0.008300781,-0.026367188,-1.0356445,-0.044697456,1.2994189,-0.3139464,188.70001,33.600002,-5.1000004,42.411766,-74.29182,0.0,1,0,0,3.8788433,3.0175478,false,0.0
11393,-0.008300781,-0.026367188,-1.0356445,-0.044697456,1.2994189,-0.3139464,188.70001,33.600002,-5.1000004,42.411766,-74.29182,0.0,1,0,0,3.8788433,3.0175478,false,0.0
11393,-0.008300781,-0.026367188,-1.0356445,-0.044697456,1.2994189,-0.3139464,188.70001,33.600002,-5.1000004,42.411766,-74.29182,0.0,1,0,0,3.8788433,3.0175478,false,0.0
11393,-0.008300781,-0.026367188,-1.0356445,-0.044697456,1.2994189,-0.3139464,188.70001,33.600002,-5.1000004,42.411766,-74.29182,0.0,1,0,0,3.8788433,3.0175478,false,0.0
11393,-0.008300781,-0.026367188,-1.0356445,-0.044697456,1.2994189,-0.3139464,188.70001,33.600002,-5.1000004,42.411766,-74.29182,0.0,1,0,0,3.8788433,3.0175478,false,0.0
11393,-0.008300781,-0.026367188,-1.0356445,-0.044697456,1.2994189,-0.3139464,188.70001,33.600002,-5.1000004,42.411766,-74.29182,0.0,1,0,0,3.8788433,3.0175478,false,0.0
11393,-0.008300781,-0.026367188,-1.0356445,-0.044697456,1.2994189,-0.3139464,188.70001,33.600002,-5.1000004,42.411766,-74.29182,0.0,1,0,0,3.8788433,3.0175478,false,0.0
11393,-0.008300781,-0.026367188,-1.0356445,-0.044697456,1.2994189,-0.3139464,188.70001,33.600002,-5.1000004,42.411766,-74.29182,0.0,1,0,0,3.8788433,3.0175478,false,0.0
11393,-0.008300781,-0.026367188,-1.0356445,-0.044697456,1.2994189,-0.3139464,188.70001,33.600002,-5.1000004,42.411766,-74.29182,0.0,1,0,0,3.8788433,3.0175478,false,0.0
11393,-0.008300781,-0.026367188,-1.0356445,-0.044697456,1.2994189,-0.3139464,188.70001,33.600002,-5.1000004,42.411766,-74.29182,0.0,1,0,0,3.8788433,3.0175478,false,0.0
11393,-0.008300781,-0.026367188,-1.0356445,-0.044697456,1.2994189,-0.3139464,188.70001,33.600002,-5.1000004,42.411766,-74.29182,0.0,1,0,0,3.8788433,3.0175478,false,0.0
11393,-0.008300781,-0.026367188,-1.0356445,-0.044697456,1.2994189,-0.3139464,188.70001,33.600002,-5.1000004,42.411766,-74.29182,0.0,1,0,0,3.8788433,3.0175478,false,0.0
11393,-0.008300781,-0.026367188,-1.0356445,-0.044697456,1.2994189,-0.3139464,188.70001,33.600002,-5.1000004,42.411766,-74.29182,0.0,1,0,0,3.8788433,3.0175478,false,0.0
11393,-0.008300781,-0.026367188,-1.0356445,-0.044697456,1.2994189,-0.3139464,188.70001,33.600002,-5.1000004,42.411766,-74.29182,0.0,1,0,0,3.8788433,3.0175478,false,0.0
11393,-0.008300781,-0.026367188,-1.0356445,-0.044697456,1.2994189,-0.3139464,188.70001,33.600002,-5.1000004,42.411766,-74.29182,0.0,1,0,0,3.8788433,3.0175478,false,0.0
11393,-0.008300781,-0.026367188,-1.0356445,-0.044697456,1.2994189,-0.3139464,188.70001,33.600002,-5.1000004,42.411766,-74.29182,0.0,1,0,0,3.8788433,3.0175478,false,0.0
11393,-0.008300781,-0.026367188,-1.0356445,-0.044697456,1.2994189,-0.3139464,188.70001,33.600002,-5.1000004,42.411766,-74.29182,0.0,1,0,0,3.8788433,3.0175478,false,0.0
11393,-0.0073242188,-0.023925781,-1.0351562,-0.042569008,1.2972904,-0.31501064,190.5,33.9,-4.8,42.4,-74.29182,0.0,1,0,0,3.8905928,3.0057983,false,0.0
11432,-0.0073242188,-0.023925781,-1.0351562,-0.042569008,1.2972904,-0.31501064,190.5,33.9,-4.8,42.4,-74.29182,0.0,1,0,0,3.8905928,3.0057983,false,0.0
11432,-0.0073242188,-0.023925781,-1.0351562,-0.042569008,1.2972904,-0.31501064,190.5,33.9,-4.8,42.4,-74.29182,0.0,1,0,0,3.8905928,3.0057983,false,0.0
11432,-0.0073242188,-0.023925781,-1.0351562,-0.042569008,1.2972904,-0.31501064,190.5,33.9,-4.8,42.4,-74.29182,0.0,1,0,0,3.8905928,3.0057983,false,0.0
11432,-0.0073242188,-0.023925781,-1.0351562,-0.042569008,1.2972904,-0.31501064,190.5,33.9,-4.8,42.4,-74.29182,0.0,1,0,0,3.8905928,3.0057983,false,0.0
11433,-0.0073242188,-0.023925781,-1.0351562,-0.042569008,1.2972904,-0.31501064,190.5,33.9,-4.8,42.4,-74.29182,0.0,1,0,0,3.8905928,3.0057983,false,0.0
11433,-0.0073242188,-0.023925781,-1.0351562,-0.042569008,1.2972904,-0.31501064,190.5,33.9,-4.8,42.4,-74.29182,0.0,1,0,0,3.8905928,3.0057983,false,0.0
11433,-0.0073242188,-0.023925781,-1.0351562,-0.042569008,1.2972904,-0.31501064,190.5,33.9,-4.8,42.4,-74.29182,0.0,1,0,0,3.8905928,3.0057983,false,0.0
11433,-0.0073242188,-0.023925781,-1.0351562,-0.042569008,1.2972904,-0.31501064,190.5,33.9,-4.8,42.4,-74.29182,0.0,1,0,0,3.8905928,3.0057983,false,0.0
11433,-0.0073242188,-0.023925781,-1.0351562,-0.042569008,1.2972904,-0.31501064,190.5,33.9,-4.8,42.4,-74.29182,0.0,1,0,0,3.8905928,3.0057983,false,0.0
11433,-0.0073242188,-0.023925781,-1.0351562,-0.042569008,1.2972904,-0.31501064,190.5,33.9,-4.8,42.4,-74.29182,0.0,1,0,0,3.8905928,3.0057983,false,0.0
11433,-0.0073242188,-0.023925781,-1.0351562,-0.042569008,1.2972904,-0.31501064,190.5,33.9,-4.8,42.4,-74.29182,0.0,1,0,0,3.8905928,3.0057983,false,0.0
11433,-0.0073242188,-0.023925781,-1.0351562,-0.042569008,1.2972904,-0.31501064,190.5,33.9,-4.8,42.4,-74.29182,0.0,1,0,0,3.8905928,3.0057983,false,0.0
11433,-0.0073242188,-0.023925781,-1.0351562,-0.042569008,1.2972904,-0.31501064,190.5,33.9,-4.8,42.4,-74.29182,0.0,1,0,0,3.8905928,3.0057983,false,0.0
11433,-0.0073242188,-0.023925781,-1.0351562,-0.042569008,1.2972904,-0.31501064,190.5,33.9,-4.8,42.4,-74.29182,0.0,1,0,0,3.8905928,3.0057983,false,0.0
11434,-0.0073242188,-0.023925781,-1.0351562,-0.042569008,1.2972904,-0.31501064,190.5,33.9,-4.8,42.4,-74.29182,0.0,1,0,0,3.8905928,3.0057983,false,0.0
11434,-0.0073242188,-0.023925781,-1.0351562,-0.042569008,1.2972904,-0.31501064,190.5,33.9,-4.8,42.4,-74.29182,0.0,1,0,0,3.8905928,3.0057983,false,0.0
11434,-0.0073242188,-0.023925781,-1.0351562,-0.042569008,1.2972904,-0.31501064,190.5,33.9,-4.8,42.4,-74.29182,0.0,1,0,0,3.8905928,3.0057983,false,0.0
11434,-0.0073242188,-0.023925781,-1.0351562,-0.042569008,1.2972904,-0.31501064,190.5,33.9,-4.8,42.4,-74.29182,0.0,1,0,0,3.8905928,3.0057983,false,0.0
11434,-0.0073242188,-0.023925781,-1.0351562,-0.042569008,1.2972904,-0.31501064,190.5,33.9,-4.8,42.4,-74.29182,0.0,1,0,0,3.8905928,3.0057983,false,0.0
11434,-0.0073242188,-0.023925781,-1.0351562,-0.042569008,1.2972904,-0.31501064,190.5,33.9,-4.8,42.4,-74.29182,0.0,1,0,0,3.8905928,3.0057983,false,0.0
11434,-0.0073242188,-0.023925781,-1.0351562,-0.042569008,1.2972904,-0.31501064,190.5,33.9,-4.8,42.4,-74.29182,0.0,1,0,0,3.8905928,3.0057983,false,0.0
11434,-0.0073242188,-0.023925781,-1.0351562,-0.042569008,1.2972904,-0.31501064,190.5,33.9,-4.8,42.4,-74.29182,0.0,1,0,0,3.8905928,3.0057983,false,0.0
11434,-0.0073242188,-0.023925781,-1.0351562,-0.042569008,1.2972904,-0.31501064,190.5,33.9,-4.8,42.4,-74.29182,0.0,1,0,0,3.8905928,3.0057983,false,0.0
11434,-0.0073242188,-0.023925781,-1.0351562,-0.042569008,1.2972904,-0.31501064,190.5,33.9,-4.8,42.4,-74.29182,0.0,1,0,0,3.8905928,3.0057983,false,0.0
11434,-0.0073242188,-0.023925781,-1.0351562,-0.042569008,1.2972904,-0.31501064,190.5,33.9,-4.8,42.4,-74.29182,0.0,1,0,0,3.8905928,3.0057983,false,0.0
11434,-0.0073242188,-0.023925781,-1.0351562,-0.042569008,1.2972904,-0.31501064,190.5,33.9,-4.8,42.4,-74.29182,0.0,1,0,0,3.8905928,3.0057983,false,0.0
11434,-0.0073242188,-0.023925781,-1.0351562,-0.042569008,1.2972904,-0.31501064,190.5,33.9,-4.8,42.4,-74.29182,0.0,1,0,0,3.8905928,3.0057983,false,0.0
11434,-0.0073242188,-0.023925781,-1.0351562,-0.042569008,1.2972904,-0.31501064,190.5,33.9,-4.8,42.4,-74.29182,0.0,1,0,0,3.8905928,3.0057983,false,0.0
11434,-0.0073242188,-0.023925781,-1.0351562,-0.042569008,1.2972904,-0.31501064,190.5,33.9,-4.8,42.4,-74.29182,0.0,1,0,0,3.8905928,3.0057983,false,0.0
11434,-0.0073242188,-0.023925781,-1.0351562,-0.042569008,1.2972904,-0.31501064,190.5,33.9,-4.8,42.4,-74.29182,0.0,1,0,0,3.8905928,3.0057983,false,0.0
11434,-0.0073242188,-0.023925781,-1.0351562,-0.042569008,1.2972904,-0.31501064,190.5,33.9,-4.8,42.4,-74.29182,0.0,1,0,0,3.8905928,3.0057983,false,0.0
11434,-0.0073242188,-0.023925781,-1.0351562,-0.042569008,1.2972904,-0.31501064,190.5,33.9,-4.8,42.4,-74.29182,0.0,1,0,0,3.8905928,3.0057983,false,0.0
11434,-0.0073242188,-0.023925781,-1.0351562,-0.042569008,1.2972904,-0.31501064,190.5,33.9,-4.8,42.4,-74.29182,0.0,1,0,0,3.8905928,3.0057983,false,0.0
11434,-0.0073242188,-0.023925781,-1.0351562,-0.042569008,1.2972904,-0.31501064,190.5,33.9,-4.8,42.4,-74.29182,0.0,1,0,0,3.8905928,3.0057983,false,0.0
11434,-0.0073242188,-0.023925781,-1.0351562,-0.042569008,1.2972904,-0.31501064,190.5,33.9,-4.8,42.4,-74.29182,0.0,1,0,0,3.8905928,3.0057983,false,0.0
11434,-0.0073242188,-0.023925781,-1.0351562,-0.042569008,1.2972904,-0.31501064,190.5,33.9,-4.8,42.4,-74.29182,0.0,1,0,0,3.8905928,3.0057983,false,0.0
11434,-0.0073242188,-0.023925781,-1.0351562,-0.042569008,1.2972904,-0.31501064,190.5,33.9,-4.8,42.4,-74.29182,0.0,1,0,0,3.8905928,3.0057983,false,0.0
11434,-0.0073242188,-0.023925781,-1.0351562,-0.042569008,1.2972904,-0.31501064,190.5,33.9,-4.8,42.4,-74.29182,0.0,1,0,0,3.8905928,3.0057983,false,0.0
11434,-0.0073242188,-0.023925781,-1.0351562,-0.042569008,1.2972904,-0.31501064,190.5,33.9,-4.8,42.4,-74.29182,0.0,1,0,0,3.8905928,3.0057983,false,0.0
11434,-0.0073242188,-0.023925781,-1.0351562,-0.042569008,1.2972904,-0.31501064,190.5,33.9,-4.8,42.4,-74.29182,0.0,1,0,0,3.8905928,3.0057983,false,0.0
11434,-0.0073242188,-0.023925781,-1.0351562,-0.042569008,1.2972904,-0.31501064,190.5,33.9,-4.8,42.4,-74.29182,0.0,1,0,0,3.8905928,3.0057983,false,0.0
11434,-0.0073242188,-0.023925781,-1.0351562,-0.042569008,1.2972904,-0.31501064,190.5,33.9,-4.8,42.4,-74.29182,0.0,1,0,0,3.8905928,3.0057983,false,0.0
11434,-0.010253906,-0.028320312,-1.03125,-0.042569008,1.3015474,-0.31501064,189.0,31.800001,-9.0,42.42059,-74.29182,0.0,1,0,0,3.8905928,3.0,false,0.0
11479,-0.010253906,-0.028320312,-1.03125,-0.042569008,1.3015474,-0.31501064,189.0,31.800001,-9.0,42.42059,-74.29182,0.0,1,0,0,3.8905928,3.0,false,0.0
11479,-0.010253906,-0.028320312,-1.03125,-0.042569008,1.3015474,-0.31501064,189.0,31.800001,-9.0,42.42059,-74.29182,0.0,1,0,0,3.8905928,3.0,false,0.0
11479,-0.010253906,-0.028320312,-1.03125,-0.042569008,1.3015474,-0.31501064,189.0,31.800001,-9.0,42.42059,-74.29182,0.0,1,0,0,3.8905928,3.0,false,0.0
11479,-0.010253906,-0.028320312,-1.03125,-0.042569008,1.3015474,-0.31501064,189.0,31.800001,-9.0,42.42059,-74.29182,0.0,1,0,0,3.8905928,3.0,false,0.0
11479,-0.010253906,-0.028320312,-1.03125,-0.042569008,1.3015474,-0.31501064,189.0,31.800001,-9.0,42.42059,-74.29182,0.0,1,0,0,3.8905928,3.0,false,0.0
11479,-0.010253906,-0.028320312,-1.03125,-0.042569008,1.3015474,-0.31501064,189.0,31.800001,-9.0,42.42059,-74.29182,0.0,1,0,0,3.8905928,3.0,false,0.0
11479,-0.010253906,-0.028320312,-1.03125,-0.042569008,1.3015474,-0.31501064,189.0,31.800001,-9.0,42.42059,-74.29182,0.0,1,0,0,3.8905928,3.0,false,0.0
11479,-0.010253906,-0.028320312,-1.03125,-0.042569008,1.3015474,-0.31501064,189.0,31.800001,-9.0,42.42059,-74.29182,0.0,1,0,0,3.8905928,3.0,false,0.0
11479,-0.010253906,-0.028320312,-1.03125,-0.042569008,1.3015474,-0.31501064,189.0,31.800001,-9.0,42.42059,-74.29182,0.0,1,0,0,3.8905928,3.0,false,0.0
11479,-0.010253906,-0.028320312,-1.03125,-0.042569008,1.3015474,-0.31501064,189.0,31.800001,-9.0,42.42059,-74.29182,0.0,1,0,0,3.8905928,3.0,false,0.0
11479,-0.010253906,-0.028320312,-1.03125,-0.042569008,1.3015474,-0.31501064,189.0,31.800001,-9.0,42.42059,-74.29182,0.0,1,0,0,3.8905928,3.0,false,0.0
11479,-0.010253906,-0.028320312,-1.03125,-0.042569008,1.3015474,-0.31501064,189.0,31.800001,-9.0,42.42059,-74.29182,0.0,1,0,0,3.8905928,3.0,false,0.0
11480,-0.010253906,-0.028320312,-1.03125,-0.042569008,1.3015474,-0.31501064,189.0,31.800001,-9.0,42.42059,-74.29182,0.0,1,0,0,3.8905928,3.0,false,0.0
11480,-0.010253906,-0.028320312,-1.03125,-0.042569008,1.3015474,-0.31501064,189.0,31.800001,-9.0,42.42059,-74.29182,0.0,1,0,0,3.8905928,3.0,false,0.0
11480,-0.010253906,-0.028320312,-1.03125,-0.042569008,1.3015474,-0.31501064,189.0,31.800001,-9.0,42.42059,-74.29182,0.0,1,0,0,3.8905928,3.0,false,0.0
11480,-0.010253906,-0.028320312,-1.03125,-0.042569008,1.3015474,-0.31501064,189.0,31.800001,-9.0,42.42059,-74.29182,0.0,1,0,0,3.8905928,3.0,false,0.0
11480,-0.010253906,-0.028320312,-1.03125,-0.042569008,1.3015474,-0.31501064,189.0,31.800001,-9.0,42.42059,-74.29182,0.0,1,0,0,3.8905928,3.0,false,0.0
11480,-0.010253906,-0.028320312,-1.03125,-0.042569008,1.3015474,-0.31501064,189.0,31.800001,-9.0,42.42059,-74.29182,0.0,1,0,0,3.8905928,3.0,false,0.0
11480,-0.010253906,-0.028320312,-1.03125,-0.042569008,1.3015474,-0.31501064,189.0,31.800001,-9.0,42.42059,-74.29182,0.0,1,0,0,3.8905928,3.0,false,0.0
11480,-0.010253906,-0.028320312,-1.03125,-0.042569008,1.3015474,-0.31501064,189.0,31.800001,-9.0,42.42059,-74.29182,0.0,1,0,0,3.8905928,3.0,false,0.0
11480,-0.010253906,-0.028320312,-1.03125,-0.042569008,1.3015474,-0.31501064,189.0,31.800001,-9.0,42.42059,-74.29182,0.0,1,0,0,3.8905928,3.0,false,0.0
11480,-0.010253906,-0.028320312,-1.03125,-0.042569008,1.3015474,-0.31501064,189.0,31.800001,-9.0,42.42059,-74.29182,0.0,1,0,0,3.8905928,3.0,false,0.0
11480,-0.010253906,-0.028320312,-1.03125,-0.042569008,1.3015474,-0.31501064,189.0,31.800001,-9.0,42.42059,-74.29182,0.0,1,0,0,3.8905928,3.0,false,0.0
11480,-0.010253906,-0.028320312,-1.03125,-0.042569008,1.3015474,-0.31501064,189.0,31.800001,-9.0,42.42059,-74.29182,0.0,1,0,0,3.8905928,3.0,false,0.0
11480,-0.010253906,-0.028320312,-1.03125,-0.042569008,1.3015474,-0.31501064,189.0,31.800001,-9.0,42.42059,-74.29182,0.0,1,0,0,3.8905928,3.0,false,0.0
11480,-0.010253906,-0.028320312,-1.03125,-0.042569008,1.3015474,-0.31501064,189.0,31.800001,-9.0,42.42059,-74.29182,0.0,1,0,0,3.8905928,3.0,false,0.0
11480,-0.010253906,-0.028320312,-1.03125,-0.042569008,1.3015474,-0.31501064,189.0,31.800001,-9.0,42.42059,-74.29182,0.0,1,0,0,3.8905928,3.0,false,0.0
11480,-0.010253906,-0.028320312,-1.03125,-0.042569008,1.3015474,-0.31501064,189.0,31.800001,-9.0,42.42059,-74.29182,0.0,1,0,0,3.8905928,3.0,false,0.0
11481,-0.010253906,-0.028320312,-1.03125,-0.042569008,1.3015474,-0.31501064,189.0,31.800001,-9.0,42.42059,-74.29182,0.0,1,0,0,3.8905928,3.0,false,0.0
11481,-0.010253906,-0.028320312,-1.03125,-0.042569008,1.3015474,-0.31501064,189.0,31.800001,-9.0,42.42059,-74.29182,0.0,1,0,0,3.8905928,3.0,false,0.0
11481,-0.010253906,-0.028320312,-1.03125,-0.042569008,1.3015474,-0.31501064,189.0,31.800001,-9.0,42.42059,-74.29182,0.0,1,0,0,3.8905928,3.0,false,0.0
11481,-0.010253906,-0.028320312,-1.03125,-0.042569008,1.3015474,-0.31501064,189.0,31.800001,-9.0,42.42059,-74.29182,0.0,1,0,0,3.8905928,3.0,false,0.0
11481,-0.010253906,-0.028320312,-1.03125,-0.042569008,1.3015474,-0.31501064,189.0,31.800001,-9.0,42.42059,-74.29182,0.0,1,0,0,3.8905928,3.0,false,0.0
11481,-0.010253906,-0.028320312,-1.03125,-0.042569008,1.3015474,-0.31501064,189.0,31.800001,-9.0,42.42059,-74.29182,0.0,1,0,0,3.8905928,3.0,false,0.0
11481,-0.010253906,-0.028320312,-1.03125,-0.042569008,1.3015474,-0.31501064,189.0,31.800001,-9.0,42.42059,-74.29182,0.0,1,0,0,3.8905928,3.0,false,0.0
11481,-0.010253906,-0.028320312,-1.03125,-0.042569008,1.3015474,-0.31501064,189.0,31.800001,-9.0,42.42059,-74.29182,0.0,1,0,0,3.8905928,3.0,false,0.0
11481,-0.010253906,-0.028320312,-1.03125,-0.042569008,1.3015474,-0.31501064,189.0,31.800001,-9.0,42.42059,-74.29182,0.0,1,0,0,3.8905928,3.0,false,0.0
11481,-0.010253906,-0.028320312,-1.03125,-0.042569008,1.3015474,-0.31501064,189.0,31.800001,-9.0,42.42059,-74.29182,0.0,1,0,0,3.8905928,3.0,false,0.0
11481,-0.010253906,-0.028320312,-1.03125,-0.042569008,1.3015474,-0.31501064,189.0,31.800001,-9.0,42.42059,-74.29182,0.0,1,0,0,3.8905928,3.0,false,0.0
11482,-0.010253906,-0.028320312,-1.03125,-0.042569008,1.3015474,-0.31501064,189.0,31.800001,-9.0,42.42059,-74.29182,0.0,1,0,0,3.8905928,3.0,false,0.0
11482,-0.010253906,-0.028320312,-1.03125,-0.042569008,1.3015474,-0.31501064,189.0,31.800001,-9.0,42.42059,-74.29182,0.0,1,0,0,3.8905928,3.0,false,0.0
11482,-0.010253906,-0.028320312,-1.03125,-0.042569008,1.3015474,-0.31501064,189.0,31.800001,-9.0,42.42059,-74.29182,0.0,1,0,0,3.8905928,3.0,false,0.0
11483,-0.0087890625,-0.025390625,-1.0341797,-0.045761682,1.3004832,-0.31607488,189.6,35.100002,-6.3,42.405884,-74.29182,0.0,1,0,0,3.873045,3.0234225,false,0.0
11527,-0.0087890625,-0.025390625,-1.0341797,-0.045761682,1.3004832,-0.31607488,189.6,35.100002,-6.3,42.405884,-74.29182,0.0,1,0,0,3.873045,3.0234225,false,0.0
11527,-0.0087890625,-0.025390625,-1.0341797,-0.045761682,1.3004832,-0.31607488,189.6,35.100002,-6.3,42.405884,-74.29182,0.0,1,0,0,3.873045,3.0234225,false,0.0
11527,-0.0087890625,-0.025390625,-1.0341797,-0.045761682,1.3004832,-0.31607488,189.6,35.100002,-6.3,42.405884,-74.29182,0.0,1,0,0,3.873045,3.0234225,false,0.0
11527,-0.0087890625,-0.025390625,-1.0341797,-0.045761682,1.3004832,-0.31607488,189.6,35.100002,-6.3,42.405884,-74.29182,0.0,1,0,0,3.873045,3.0234225,false,0.0
11527,-0.0087890625,-0.025390625,-1.0341797,-0.045761682,1.3004832,-0.31607488,189.6,35.100002,-6.3,42.405884,-74.29182,0.0,1,0,0,3.873045,3.0234225,false,0.0
11527,-0.0087890625,-0.025390625,-1.0341797,-0.045761682,1.3004832,-0.31607488,189.6,35.100002,-6.3,42.405884,-74.29182,0.0,1,0,0,3.873045,3.0234225,false,0.0
11527,-0.0087890625,-0.025390625,-1.0341797,-0.045761682,1.3004832,-0.31607488,189.6,35.100002,-6.3,42.405884,-74.29182,0.0,1,0,0,3.873045,3.0234225,false,0.0
11527,-0.0087890625,-0.025390625,-1.0341797,-0.045761682,1.3004832,-0.31607488,189.6,35.100002,-6.3,42.405884,-74.29182,0.0,1,0,0,3.873045,3.0234225,false,0.0
11527,-0.0087890625,-0.025390625,-1.0341797,-0.045761682,1.3004832,-0.31607488,189.6,35.100002,-6.3,42.405884,-74.29182,0.0,1,0,0,3.873045,3.0234225,false,0.0
11527,-0.0087890625,-0.025390625,-1.0341797,-0.045761682,1.3004832,-0.31607488,189.6,35.100002,-6.3,42.405884,-74.29182,0.0,1,0,0,3.873045,3.0234225,false,0.0
11527,-0.0087890625,-0.025390625,-1.0341797,-0.045761682,1.3004832,-0.31607488,189.6,35.100002,-6.3,42.405884,-74.29182,0.0,1,0,0,3.873045,3.0234225,false,0.0
11527,-0.0087890625,-0.025390625,-1.0341797,-0.045761682,1.3004832,-0.31607488,189.6,35.100002,-6.3,42.405884,-74.29182,0.0,1,0,0,3.873045,3.0234225,false,0.0
11527,-0.0087890625,-0.025390625,-1.0341797,-0.045761682,1.3004832,-0.31607488,189.6,35.100002,-6.3,42.405884,-74.29182,0.0,1,0,0,3.873045,3.0234225,false,0.0
11527,-0.0087890625,-0.025390625,-1.0341797,-0.045761682,1.3004832,-0.31607488,189.6,35.100002,-6.3,42.405884,-74.29182,0.0,1,0,0,3.873045,3.0234225,false,0.0
11527,-0.0087890625,-0.025390625,-1.0341797,-0.045761682,1.3004832,-0.31607488,189.6,35.100002,-6.3,42.405884,-74.29182,0.0,1,0,0,3.873045,3.0234225,false,0.0
11527,-0.0087890625,-0.025390625,-1.0341797,-0.045761682,1.3004832,-0.31607488,189.6,35.100002,-6.3,42.405884,-74.29182,0.0,1,0,0,3.873045,3.0234225,false,0.0
11527,-0.0087890625,-0.025390625,-1.0341797,-0.045761682,1.3004832,-0.31607488,189.6,35.100002,-6.3,42.405884,-74.29182,0.0,1,0,0,3.873045,3.0234225,false,0.0
11527,-0.0087890625,-0.025390625,-1.0341797,-0.045761682,1.3004832,-0.31607488,189.6,35.100002,-6.3,42.405884,-74.29182,0.0,1,0,0,3.873045,3.0234225,false,0.0
11527,-0.0087890625,-0.025390625,-1.0341797,-0.045761682,1.3004832,-0.31607488,189.6,35.100002,-6.3,42.405884,-74.29182,0.0,1,0,0,3.873045,3.0234225,false,0.0
11527,-0.0087890625,-0.025390625,-1.0341797,-0.045761682,1.3004832,-0.31607488,189.6,35.100002,-6.3,42.405884,-74.29182,0.0,1,0,0,3.873045,3.0234225,false,0.0
11527,-0.0087890625,-0.025390625,-1.0341797,-0.045761682,1.3004832,-0.31607488,189.6,35.100002,-6.3,42.405884,-74.29182,0.0,1,0,0,3.873045,3.0234225,false,0.0
11527,-0.0087890625,-0.025390625,-1.0341797,-0.045761682,1.3004832,-0.31607488,189.6,35.100002,-6.3,42.405884,-74.29182,0.0,1,0,0,3.873045,3.0234225,false,0.0
11527,-0.0087890625,-0.025390625,-1.0341797,-0.045761682,1.3004832,-0.31607488,189.6,35.100002,-6.3,42.405884,-74.29182,0.0,1,0,0,3.873045,3.0234225,false,0.0
11527,-0.0087890625,-0.025390625,-1.0341797,-0.045761682,1.3004832,-0.31607488,189.6,35.100002,-6.3,42.405884,-74.29182,0.0,1,0,0,3.873045,3.0234225,false,0.0
11527,-0.0087890625,-0.025390625,-1.0341797,-0.045761682,1.3004832,-0.31607488,189.6,35.100002,-6.3,42.405884,-74.29182,0.0,1,0,0,3.873045,3.0234225,false,0.0
11527,-0.0087890625,-0.025390625,-1.0341797,-0.045761682,1.3004832,-0.31607488,189.6,35.100002,-6.3,42.405884,-74.29182,0.0,1,0,0,3.873045,3.0234225,false,0.0
11527,-0.0087890625,-0.025390625,-1.0341797,-0.045761682,1.3004832,-0.31607488,189.6,35.100002,-6.3,42.405884,-74.29182,0.0,1,0,0,3.873045,3.0234225,false,0.0
11527,-0.0087890625,-0.025390625,-1.0341797,-0.045761682,1.3004832,-0.31607488,189.6,35.100002,-6.3,42.405884,-74.29182,0.0,1,0,0,3.873045,3.0234225,false,0.0
11527,-0.0087890625,-0.025390625,-1.0341797,-0.045761682,1.3004832,-0.31607488,189.6,35.100002,-6.3,42.405884,-74.29182,0.0,1,0,0,3.873045,3.0234225,false,0.0
11527,-0.0087890625,-0.025390625,-1.0341797,-0.045761682,1.3004832,-0.31607488,189.6,35.100002,-6.3,42.405884,-74.29182,0.0,1,0,0,3.873045,3.0234225,false,0.0
11527,-0.0087890625,-0.025390625,-1.0341797,-0.045761682,1.3004832,-0.31607488,189.6,35.100002,-6.3,42.405884,-74.29182,0.0,1,0,0,3.873045,3.0234225,false,0.0
11527,-0.0087890625,-0.025390625,-1.0341797,-0.045761682,1.3004832,-0.31607488,189.6,35.100002,-6.3,42.405884,-74.29182,0.0,1,0,0,3.873045,3.0234225,false,0.0
11527,-0.0087890625,-0.025390625,-1.0341797,-0.045761682,1.3004832,-0.31607488,189.6,35.100002,-6.3,42.405884,-74.29182,0.0,1,0,0,3.873045,3.0234225,false,0.0
11528,-0.0087890625,-0.025390625,-1.0341797,-0.045761682,1.3004832,-0.31607488,189.6,35.100002,-6.3,42.405884,-74.29182,0.0,1,0,0,3.873045,3.0234225,false,0.0
11541,-0.0087890625,-0.025390625,-1.0341797,-0.045761682,1.3004832,-0.31607488,189.6,35.100002,-6.3,42.405884,-74.29182,0.0,1,0,0,3.873045,3.0234225,false,0.0
11541,-0.0087890625,-0.025390625,-1.0341797,-0.045761682,1.3004832,-0.31607488,189.6,35.100002,-6.3,42.405884,-74.29182,0.0,1,0,0,3.873045,3.0234225,false,0.0
11541,-0.0087890625,-0.025390625,-1.0341797,-0.045761682,1.3004832,-0.31607488,189.6,35.100002,-6.3,42.405884,-74.29182,0.0,1,0,0,3.873045,3.0234225,false,0.0
11541,-0.0087890625,-0.025390625,-1.0341797,-0.045761682,1.3004832,-0.31607488,189.6,35.100002,-6.3,42.405884,-74.29182,0.0,1,0,0,3.873045,3.0234225,false,0.0
11541,-0.0087890625,-0.025390625,-1.0341797,-0.045761682,1.3004832,-0.31607488,189.6,35.100002,-6.3,42.405884,-74.29182,0.0,1,0,0,3.873045,3.0234225,false,0.0
11541,-0.0087890625,-0.025390625,-1.0341797,-0.045761682,1.3004832,-0.31607488,189.6,35.100002,-6.3,42.405884,-74.29182,0.0,1,0,0,3.873045,3.0234225,false,0.0
11541,-0.0087890625,-0.025390625,-1.0341797,-0.045761682,1.3004832,-0.31607488,189.6,35.100002,-6.3,42.405884,-74.29182,0.0,1,0,0,3.873045,3.0234225,false,0.0
11541,-0.0087890625,-0.025390625,-1.0341797,-0.045761682,1.3004832,-0.31607488,189.6,35.100002,-6.3,42.405884,-74.29182,0.0,1,0,0,3.873045,3.0234225,false,0.0
11541,-0.005859375,-0.026855469,-1.0336914,-0.048954356,1.2983546,-0.31607488,187.8,35.4,-8.1,42.39118,-74.29182,0.0,1,0,0,3.8905928,3.0,false,0.0
11589,-0.005859375,-0.026855469,-1.0336914,-0.048954356,1.2983546,-0.31607488,187.8,35.4,-8.1,42.39118,-74.29182,0.0,1,0,0,3.8905928,3.0,false,0.0
11589,-0.005859375,-0.026855469,-1.0336914,-0.048954356,1.2983546,-0.31607488,187.8,35.4,-8.1,42.39118,-74.29182,0.0,1,0,0,3.8905928,3.0,false,0.0
11589,-0.005859375,-0.026855469,-1.0336914,-0.048954356,1.2983546,-0.31607488,187.8,35.4,-8.1,42.39118,-74.29182,0.0,1,0,0,3.8905928,3.0,false,0.0
11590,-0.005859375,-0.026855469,-1.0336914,-0.048954356,1.2983546,-0.31607488,187.8,35.4,-8.1,42.39118,-74.29182,0.0,1,0,0,3.8905928,3.0,false,0.0
11591,-0.005859375,-0.026855469,-1.0336914,-0.048954356,1.2983546,-0.31607488,187.8,35.4,-8.1,42.39118,-74.29182,0.0,1,0,0,3.8905928,3.0,false,0.0
11591,-0.005859375,-0.026855469,-1.0336914,-0.048954356,1.2983546,-0.31607488,187.8,35.4,-8.1,42.39118,-74.29182,0.0,1,0,0,3.8905928,3.0,false,0.0
11591,-0.005859375,-0.026855469,-1.0336914,-0.048954356,1.2983546,-0.31607488,187.8,35.4,-8.1,42.39118,-74.29182,0.0,1,0,0,3.8905928,3.0,false,0.0
11591,-0.005859375,-0.026855469,-1.0336914,-0.048954356,1.2983546,-0.31607488,187.8,35.4,-8.1,42.39118,-74.29182,0.0,1,0,0,3.8905928,3.0,false,0.0
11591,-0.005859375,-0.026855469,-1.0336914,-0.048954356,1.2983546,-0.31607488,187.8,35.4,-8.1,42.39118,-74.29182,0.0,1,0,0,3.8905928,3.0,false,0.0
11591,-0.005859375,-0.026855469,-1.0336914,-0.048954356,1.2983546,-0.31607488,187.8,35.4,-8.1,42.39118,-74.29182,0.0,1,0,0,3.8905928,3.0,false,0.0
11591,-0.005859375,-0.026855469,-1.0336914,-0.048954356,1.2983546,-0.31607488,187.8,35.4,-8.1,42.39118,-74.29182,0.0,1,0,0,3.8905928,3.0,false,0.0
11591,-0.005859375,-0.026855469,-1.0336914,-0.048954356,1.2983546,-0.31607488,187.8,35.4,-8.1,42.39118,-74.29182,0.0,1,0,0,3.8905928,3.0,false,0.0
11591,-0.005859375,-0.026855469,-1.0336914,-0.048954356,1.2983546,-0.31607488,187.8,35.4,-8.1,42.39118,-74.29182,0.0,1,0,0,3.8905928,3.0,false,0.0
11591,-0.005859375,-0.026855469,-1.0336914,-0.048954356,1.2983546,-0.31607488,187.8,35.4,-8.1,42.39118,-74.29182,0.0,1,0,0,3.8905928,3.0,false,0.0
11591,-0.005859375,-0.026855469,-1.0336914,-0.048954356,1.2983546,-0.31607488,187.8,35.4,-8.1,42.39118,-74.29182,0.0,1,0,0,3.8905928,3.0,false,0.0
11591,-0.005859375,-0.026855469,-1.0336914,-0.048954356,1.2983546,-0.31607488,187.8,35.4,-8.1,42.39118,-74.29182,0.0,1,0,0,3.8905928,3.0,false,0.0
11591,-0.005859375,-0.026855469,-1.0336914,-0.048954356,1.2983546,-0.31607488,187.8,35.4,-8.1,42.39118,-74.29182,0.0,1,0,0,3.8905928,3.0,false,0.0
11591,-0.005859375,-0.026855469,-1.0336914,-0.048954356,1.2983546,-0.31607488,187.8,35.4,-8.1,42.39118,-74.29182,0.0,1,0,0,3.8905928,3.0,false,0.0
11591,-0.005859375,-0.026855469,-1.0336914,-0.048954356,1.2983546,-0.31607488,187.8,35.4,-8.1,42.39118,-74.29182,0.0,1,0,0,3.8905928,3.0,false,0.0
11591,-0.005859375,-0.026855469,-1.0336914,-0.048954356,1.2983546,-0.31607488,187.8,35.4,-8.1,42.39118,-74.29182,0.0,1,0,0,3.8905928,3.0,false,0.0
11591,-0.005859375,-0.026855469,-1.0336914,-0.048954356,1.2983546,-0.31607488,187.8,35.4,-8.1,42.39118,-74.29182,0.0,1,0,0,3.8905928,3.0,false,0.0
11591,-0.005859375,-0.026855469,-1.0336914,-0.048954356,1.2983546,-0.31607488,187.8,35.4,-8.1,42.39118,-74.29182,0.0,1,0,0,3.8905928,3.0,false,0.0
11591,-0.005859375,-0.026855469,-1.0336914,-0.048954356,1.2983546,-0.31607488,187.8,35.4,-8.1,42.39118,-74.29182,0.0,1,0,0,3.8905928,3.0,false,0.0
11591,-0.005859375,-0.026855469,-1.0336914,-0.048954356,1.2983546,-0.31607488,187.8,35.4,-8.1,42.39118,-74.29182,0.0,1,0,0,3.8905928,3.0,false,0.0
11591,-0.005859375,-0.026855469,-1.0336914,-0.048954356,1.2983546,-0.31607488,187.8,35.4,-8.1,42.39118,-74.29182,0.0,1,0,0,3.8905928,3.0,false,0.0
11591,-0.005859375,-0.026855469,-1.0336914,-0.048954356,1.2983546,-0.31607488,187.8,35.4,-8.1,42.39118,-74.29182,0.0,1,0,0,3.8905928,3.0,false,0.0
11591,-0.005859375,-0.026855469,-1.0336914,-0.048954356,1.2983546,-0.31607488,187.8,35.4,-8.1,42.39118,-74.29182,0.0,1,0,0,3.8905928,3.0,false,0.0
11591,-0.005859375,-0.026855469,-1.0336914,-0.048954356,1.2983546,-0.31607488,187.8,35.4,-8.1,42.39118,-74.29182,0.0,1,0,0,3.8905928,3.0,false,0.0
11591,-0.005859375,-0.026855469,-1.0336914,-0.048954356,1.2983546,-0.31607488,187.8,35.4,-8.1,42.39118,-74.29182,0.0,1,0,0,3.8905928,3.0,false,0.0
11591,-0.005859375,-0.026855469,-1.0336914,-0.048954356,1.2983546,-0.31607488,187.8,35.4,-8.1,42.39118,-74.29182,0.0,1,0,0,3.8905928,3.0,false,0.0
11591,-0.005859375,-0.026855469,-1.0336914,-0.048954356,1.2983546,-0.31607488,187.8,35.4,-8.1,42.39118,-74.29182,0.0,1,0,0,3.8905928,3.0,false,0.0
11591,-0.005859375,-0.026855469,-1.0336914,-0.048954356,1.2983546,-0.31607488,187.8,35.4,-8.1,42.39118,-74.29182,0.0,1,0,0,3.8905928,3.0,false,0.0
11591,-0.005859375,-0.026855469,-1.0336914,-0.048954356,1.2983546,-0.31607488,187.8,35.4,-8.1,42.39118,-74.29182,0.0,1,0,0,3.8905928,3.0,false,0.0
11591,-0.005859375,-0.026855469,-1.0336914,-0.048954356,1.2983546,-0.31607488,187.8,35.4,-8.1,42.39118,-74.29182,0.0,1,0,0,3.8905928,3.0,false,0.0
11591,-0.005859375,-0.026855469,-1.0336914,-0.048954356,1.2983546,-0.31607488,187.8,35.4,-8.1,42.39118,-74.29182,0.0,1,0,0,3.8905928,3.0,false,0.0
11591,-0.005859375,-0.026855469,-1.0336914,-0.048954356,1.2983546,-0.31607488,187.8,35.4,-8.1,42.39118,-74.29182,0.0,1,0,0,3.8905928,3.0,false,0.0
11591,-0.005859375,-0.026855469,-1.0336914,-0.048954356,1.2983546,-0.31607488,187.8,35.4,-8.1,42.39118,-74.29182,0.0,1,0,0,3.8905928,3.0,false,0.0
11592,-0.005859375,-0.026855469,-1.0336914,-0.048954356,1.2983546,-0.31607488,187.8,35.4,-8.1,42.39118,-74.29182,0.0,1,0,0,3.8905928,3.0,false,0.0
11592,-0.005859375,-0.026855469,-1.0336914,-0.048954356,1.2983546,-0.31607488,187.8,35.4,-8.1,42.39118,-74.29182,0.0,1,0,0,3.8905928,3.0,false,0.0
11592,-0.005859375,-0.026855469,-1.0336914,-0.048954356,1.2983546,-0.31607488,187.8,35.4,-8.1,42.39118,-74.29182,0.0,1,0,0,3.8905928,3.0,false,0.0
11592,-0.005859375,-0.026855469,-1.0336914,-0.048954356,1.2983546,-0.31607488,187.8,35.4,-8.1,42.39118,-74.29182,0.0,1,0,0,3.8905928,3.0,false,0.0
11592,-0.005859375,-0.026855469,-1.0336914,-0.048954356,1.2983546,-0.31607488,187.8,35.4,-8.1,42.39118,-74.29182,0.0,1,0,0,3.8905928,3.0,false,0.0
11592,-0.008300781,-0.026367188,-1.0317383,-0.044697456,1.3026116,-0.31501064,189.6,33.600002,-7.2000003,42.373528,-74.29182,0.0,1,0,0,3.8788433,3.0175478,false,0.0
11636,-0.008300781,-0.026367188,-1.0317383,-0.044697456,1.3026116,-0.31501064,189.6,33.600002,-7.2000003,42.373528,-74.29182,0.0,1,0,0,3.8788433,3.0175478,false,0.0
11636,-0.008300781,-0.026367188,-1.0317383,-0.044697456,1.3026116,-0.31501064,189.6,33.600002,-7.2000003,42.373528,-74.29182,0.0,1,0,0,3.8788433,3.0175478,false,0.0
11636,-0.008300781,-0.026367188,-1.0317383,-0.044697456,1.3026116,-0.31501064,189.6,33.600002,-7.2000003,42.373528,-74.29182,0.0,1,0,0,3.8788433,3.0175478,false,0.0
11636,-0.008300781,-0.026367188,-1.0317383,-0.044697456,1.3026116,-0.31501064,189.6,33.600002,-7.2000003,42.373528,-74.29182,0.0,1,0,0,3.8788433,3.0175478,false,0.0
11636,-0.008300781,-0.026367188,-1.0317383,-0.044697456,1.3026116,-0.31501064,189.6,33.600002,-7.2000003,42.373528,-74.29182,0.0,1,0,0,3.8788433,3.0175478,false,0.0
11636,-0.008300781,-0.026367188,-1.0317383,-0.044697456,1.3026116,-0.31501064,189.6,33.600002,-7.2000003,42.373528,-74.29182,0.0,1,0,0,3.8788433,3.0175478,false,0.0
11636,-0.008300781,-0.026367188,-1.0317383,-0.044697456,1.3026116,-0.31501064,189.6,33.600002,-7.2000003,42.373528,-74.29182,0.0,1,0,0,3.8788433,3.0175478,false,0.0
11636,-0.008300781,-0.026367188,-1.0317383,-0.044697456,1.3026116,-0.31501064,189.6,33.600002,-7.2000003,42.373528,-74.29182,0.0,1,0,0,3.8788433,3.0175478,false,0.0
11636,-0.008300781,-0.026367188,-1.0317383,-0.044697456,1.3026116,-0.31501064,189.6,33.600002,-7.2000003,42.373528,-74.29182,0.0,1,0,0,3.8788433,3.0175478,false,0.0
11636,-0.008300781,-0.026367188,-1.0317383,-0.044697456,1.3026116,-0.31501064,189.6,33.600002,-7.2000003,42.373528,-74.29182,0.0,1,0,0,3.8788433,3.0175478,false,0.0
11636,-0.008300781,-0.026367188,-1.0317383,-0.044697456,1.3026116,-0.31501064,189.6,33.600002,-7.2000003,42.373528,-74.29182,0.0,1,0,0,3.8788433,3.0175478,false,0.0
11636,-0.008300781,-0.026367188,-1.0317383,-0.044697456,1.3026116,-0.31501064,189.6,33.600002,-7.2000003,42.373528,-74.29182,0.0,1,0,0,3.8788433,3.0175478,false,0.0
11636,-0.008300781,-0.026367188,-1.0317383,-0.044697456,1.3026116,-0.31501064,189.6,33.600002,-7.2000003,42.373528,-74.29182,0.0,1,0,0,3.8788433,3.0175478,false,0.0
11636,-0.008300781,-0.026367188,-1.0317383,-0.044697456,1.3026116,-0.31501064,189.6,33.600002,-7.2000003,42.373528,-74.29182,0.0,1,0,0,3.8788433,3.0175478,false,0.0
