timestamp_ms,accX,accY,accZ,omegaX,omegaY,omegaZ,magX,magY,magZ,temp,deg,duty,isStop,isCurve,isSlope,V_Lipo,V_Battery,isSlipping, slipMagnitude
34028,0,0,0,0,0,0,0,0,0,0,0,0,0,0,0,0,0,FALSE,0
34028,0,0,0,0,0,0,0,0,0,0,0,0,0,0,0,0,0,FALSE,0
34028,0,0,0,0,0,0,0,0,0,0,0,0,0,0,0,0,0,FALSE,0
34028,0,0,0,0,0,0,0,0,0,0,0,0,0,0,0,0,0,FALSE,0
34029,0,0,0,0,0,0,0,0,0,0,0,0,0,0,0,0,0,FALSE,0
34029,0,0,0,0,0,0,0,0,0,0,0,0,0,0,0,0,0,FALSE,0
34029,0,0,0,0,0,0,0,0,0,0,0,0,0,0,0,0,0,FALSE,0
34029,0,0,0,0,0,0,0,0,0,0,0,0,0,0,0,0,0,FALSE,0
34029,0,0,0,0,0,0,0,0,0,0,0,0,0,0,0,0,0,FALSE,0
34029,0,0,0,0,0,0,0,0,0,0,0,0,0,0,0,0,0,FALSE,0
34029,0,0,0,0,0,0,0,0,0,0,0,0,0,0,0,0,0,FALSE,0
34029,0,0,0,0,0,0,0,0,0,0,0,0,0,0,0,0,0,FALSE,0
34029,0,0,0,0,0,0,0,0,0,0,0,0,0,0,0,0,0,FALSE,0
34029,0,0,0,0,0,0,0,0,0,0,0,0,0,0,0,0,0,FALSE,0
34029,0,0,0,0,0,0,0,0,0,0,0,0,0,0,0,0,0,FALSE,0
34030,0,0,0,0,0,0,0,0,0,0,0,0,0,0,0,0,0,FALSE,0
34030,0,0,0,0,0,0,0,0,0,0,0,0,0,0,0,0,0,FALSE,0
34030,0,0,0,0,0,0,0,0,0,0,0,0,0,0,0,0,0,FALSE,0
34031,0,0,0,0,0,0,0,0,0,0,0,0,0,0,0,0,0,FALSE,0
34031,0,0,0,0,0,0,0,0,0,0,0,0,0,0,0,0,0,FALSE,0
34031,0,0,0,0,0,0,0,0,0,0,0,0,0,0,0,0,0,FALSE,0
34031,0,0,0,0,0,0,0,0,0,0,0,0,0,0,0,0,0,FALSE,0
34031,0,0,0,0,0,0,0,0,0,0,0,0,0,0,0,0,0,FALSE,0
34031,0,0,0,0,0,0,0,0,0,0,0,0,0,0,0,0,0,FALSE,0
34031,0,0,0,0,0,0,0,0,0,0,0,0,0,0,0,0,0,FALSE,0
34031,0,0,0,0,0,0,0,0,0,0,0,0,0,0,0,0,0,FALSE,0
34031,0,0,0,0,0,0,0,0,0,0,0,0,0,0,0,0,0,FALSE,0
34031,0,0,0,0,0,0,0,0,0,0,0,0,0,0,0,0,0,FALSE,0
34031,0,0,0,0,0,0,0,0,0,0,0,0,0,0,0,0,0,FALSE,0
34031,0,0,0,0,0,0,0,0,0,0,0,0,0,0,0,0,0,FALSE,0
34031,0,0,0,0,0,0,0,0,0,0,0,0,0,0,0,0,0,FALSE,0
34031,0,0,0,0,0,0,0,0,0,0,0,0,0,0,0,0,0,FALSE,0
34031,0,0,0,0,0,0,0,0,0,0,0,0,0,0,0,0,0,FALSE,0
34031,0,0,0,0,0,0,0,0,0,0,0,0,0,0,0,0,0,FALSE,0
34031,0,0,0,0,0,0,0,0,0,0,0,0,0,0,0,0,0,FALSE,0
34031,0,0,0,0,0,0,0,0,0,0,0,0,0,0,0,0,0,FALSE,0
34031,0,0,0,0,0,0,0,0,0,0,0,0,0,0,0,0,0,FALSE,0
34031,0,0,0,0,0,0,0,0,0,0,0,0,0,0,0,0,0,FALSE,0
34031,0,0,0,0,0,0,0,0,0,0,0,0,0,0,0,0,0,FALSE,0
34031,0,0,0,0,0,0,0,0,0,0,0,0,0,0,0,0,0,FALSE,0
34031,0,0,0,0,0,0,0,0,0,0,0,0,0,0,0,0,0,FALSE,0
34031,0,0,0,0,0,0,0,0,0,0,0,0,0,0,0,0,0,FALSE,0
34032,-0.004882813,-0.020019531,-1.0371094,-0.05108281,2.0337343,0.05108281,210.90001,18,-12,42.335293,-2.9883723,0,1,0,0,3.6679637,3.0702677,FALSE,0
34056,-0.004882813,-0.020019531,-1.0371094,-0.05108281,2.0337343,0.05108281,210.90001,18,-12,42.335293,-2.9883723,0,1,0,0,3.6679637,3.0702677,FALSE,0
34056,-0.004882813,-0.020019531,-1.0371094,-0.05108281,2.0337343,0.05108281,210.90001,18,-12,42.335293,-2.9883723,0,1,0,0,3.6679637,3.0702677,FALSE,0
34056,-0.004882813,-0.020019531,-1.0371094,-0.05108281,2.0337343,0.05108281,210.90001,18,-12,42.335293,-2.9883723,0,1,0,0,3.6679637,3.0702677,FALSE,0
34056,-0.004882813,-0.020019531,-1.0371094,-0.05108281,2.0337343,0.05108281,210.90001,18,-12,42.335293,-2.9883723,0,1,0,0,3.6679637,3.0702677,FALSE,0
34056,-0.004882813,-0.020019531,-1.0371094,-0.05108281,2.0337343,0.05108281,210.90001,18,-12,42.335293,-2.9883723,0,1,0,0,3.6679637,3.0702677,FALSE,0
34056,-0.004882813,-0.020019531,-1.0371094,-0.05108281,2.0337343,0.05108281,210.90001,18,-12,42.335293,-2.9883723,0,1,0,0,3.6679637,3.0702677,FALSE,0
34056,-0.004882813,-0.020019531,-1.0371094,-0.05108281,2.0337343,0.05108281,210.90001,18,-12,42.335293,-2.9883723,0,1,0,0,3.6679637,3.0702677,FALSE,0
34057,-0.004882813,-0.020019531,-1.0371094,-0.05108281,2.0337343,0.05108281,210.90001,18,-12,42.335293,-2.9883723,0,1,0,0,3.6679637,3.0702677,FALSE,0
34057,-0.004882813,-0.020019531,-1.0371094,-0.05108281,2.0337343,0.05108281,210.90001,18,-12,42.335293,-2.9883723,0,1,0,0,3.6679637,3.0702677,FALSE,0
34057,-0.004882813,-0.020019531,-1.0371094,-0.05108281,2.0337343,0.05108281,210.90001,18,-12,42.335293,-2.9883723,0,1,0,0,3.6679637,3.0702677,FALSE,0
34057,-0.004882813,-0.020019531,-1.0371094,-0.05108281,2.0337343,0.05108281,210.90001,18,-12,42.335293,-2.9883723,0,1,0,0,3.6679637,3.0702677,FALSE,0
34057,-0.004882813,-0.020019531,-1.0371094,-0.05108281,2.0337343,0.05108281,210.90001,18,-12,42.335293,-2.9883723,0,1,0,0,3.6679637,3.0702677,FALSE,0
34057,-0.004882813,-0.020019531,-1.0371094,-0.05108281,2.0337343,0.05108281,210.90001,18,-12,42.335293,-2.9883723,0,1,0,0,3.6679637,3.0702677,FALSE,0
34057,-0.004882813,-0.020019531,-1.0371094,-0.05108281,2.0337343,0.05108281,210.90001,18,-12,42.335293,-2.9883723,0,1,0,0,3.6679637,3.0702677,FALSE,0
34057,-0.004882813,-0.020019531,-1.0371094,-0.05108281,2.0337343,0.05108281,210.90001,18,-12,42.335293,-2.9883723,0,1,0,0,3.6679637,3.0702677,FALSE,0
34057,-0.004882813,-0.020019531,-1.0371094,-0.05108281,2.0337343,0.05108281,210.90001,18,-12,42.335293,-2.9883723,0,1,0,0,3.6679637,3.0702677,FALSE,0
34058,-0.004882813,-0.020019531,-1.0371094,-0.05108281,2.0337343,0.05108281,210.90001,18,-12,42.335293,-2.9883723,0,1,0,0,3.6679637,3.0702677,FALSE,0
34058,-0.004882813,-0.020019531,-1.0371094,-0.05108281,2.0337343,0.05108281,210.90001,18,-12,42.335293,-2.9883723,0,1,0,0,3.6679637,3.0702677,FALSE,0
34058,-0.004882813,-0.020019531,-1.0371094,-0.05108281,2.0337343,0.05108281,210.90001,18,-12,42.335293,-2.9883723,0,1,0,0,3.6679637,3.0702677,FALSE,0
34058,-0.004882813,-0.020019531,-1.0371094,-0.05108281,2.0337343,0.05108281,210.90001,18,-12,42.335293,-2.9883723,0,1,0,0,3.6679637,3.0702677,FALSE,0
34058,-0.004882813,-0.020019531,-1.0371094,-0.05108281,2.0337343,0.05108281,210.90001,18,-12,42.335293,-2.9883723,0,1,0,0,3.6679637,3.0702677,FALSE,0
34058,-0.004882813,-0.020019531,-1.0371094,-0.05108281,2.0337343,0.05108281,210.90001,18,-12,42.335293,-2.9883723,0,1,0,0,3.6679637,3.0702677,FALSE,0
34058,-0.004882813,-0.020019531,-1.0371094,-0.05108281,2.0337343,0.05108281,210.90001,18,-12,42.335293,-2.9883723,0,1,0,0,3.6679637,3.0702677,FALSE,0
34058,-0.004882813,-0.020019531,-1.0371094,-0.05108281,2.0337343,0.05108281,210.90001,18,-12,42.335293,-2.9883723,0,1,0,0,3.6679637,3.0702677,FALSE,0
34058,-0.004882813,-0.020019531,-1.0371094,-0.05108281,2.0337343,0.05108281,210.90001,18,-12,42.335293,-2.9883723,0,1,0,0,3.6679637,3.0702677,FALSE,0
34058,-0.004882813,-0.020019531,-1.0371094,-0.05108281,2.0337343,0.05108281,210.90001,18,-12,42.335293,-2.9883723,0,1,0,0,3.6679637,3.0702677,FALSE,0
34058,-0.004882813,-0.020019531,-1.0371094,-0.05108281,2.0337343,0.05108281,210.90001,18,-12,42.335293,-2.9883723,0,1,0,0,3.6679637,3.0702677,FALSE,0
34059,-0.004882813,-0.020019531,-1.0371094,-0.05108281,2.0337343,0.05108281,210.90001,18,-12,42.335293,-2.9883723,0,1,0,0,3.6679637,3.0702677,FALSE,0
34059,-0.004882813,-0.020019531,-1.0371094,-0.05108281,2.0337343,0.05108281,210.90001,18,-12,42.335293,-2.9883723,0,1,0,0,3.6679637,3.0702677,FALSE,0
34059,-0.004882813,-0.020019531,-1.0371094,-0.05108281,2.0337343,0.05108281,210.90001,18,-12,42.335293,-2.9883723,0,1,0,0,3.6679637,3.0702677,FALSE,0
34059,-0.004882813,-0.020019531,-1.0371094,-0.05108281,2.0337343,0.05108281,210.90001,18,-12,42.335293,-2.9883723,0,1,0,0,3.6679637,3.0702677,FALSE,0
34059,-0.004882813,-0.020019531,-1.0371094,-0.05108281,2.0337343,0.05108281,210.90001,18,-12,42.335293,-2.9883723,0,1,0,0,3.6679637,3.0702677,FALSE,0
34059,-0.004882813,-0.020019531,-1.0371094,-0.05108281,2.0337343,0.05108281,210.90001,18,-12,42.335293,-2.9883723,0,1,0,0,3.6679637,3.0702677,FALSE,0
34059,-0.004882813,-0.020019531,-1.0371094,-0.05108281,2.0337343,0.05108281,210.90001,18,-12,42.335293,-2.9883723,0,1,0,0,3.6679637,3.0702677,FALSE,0
34059,-0.004882813,-0.020019531,-1.0371094,-0.05108281,2.0337343,0.05108281,210.90001,18,-12,42.335293,-2.9883723,0,1,0,0,3.6679637,3.0702677,FALSE,0
34060,-0.004882813,-0.020019531,-1.0371094,-0.05108281,2.0337343,0.05108281,210.90001,18,-12,42.335293,-2.9883723,0,1,0,0,3.6679637,3.0702677,FALSE,0
34060,-0.004882813,-0.020019531,-1.0371094,-0.05108281,2.0337343,0.05108281,210.90001,18,-12,42.335293,-2.9883723,0,1,0,0,3.6679637,3.0702677,FALSE,0
34060,-0.004882813,-0.020019531,-1.0371094,-0.05108281,2.0337343,0.05108281,210.90001,18,-12,42.335293,-2.9883723,0,1,0,0,3.6679637,3.0702677,FALSE,0
34060,-0.004882813,-0.020019531,-1.0371094,-0.05108281,2.0337343,0.05108281,210.90001,18,-12,42.335293,-2.9883723,0,1,0,0,3.6679637,3.0702677,FALSE,0
34060,-0.004882813,-0.020019531,-1.0371094,-0.05108281,2.0337343,0.05108281,210.90001,18,-12,42.335293,-2.9883723,0,1,0,0,3.6679637,3.0702677,FALSE,0
34060,-0.004882813,-0.020019531,-1.0371094,-0.05108281,2.0337343,0.05108281,210.90001,18,-12,42.335293,-2.9883723,0,1,0,0,3.6679637,3.0702677,FALSE,0
34060,-0.004882813,-0.020019531,-1.0371094,-0.05108281,2.0337343,0.05108281,210.90001,18,-12,42.335293,-2.9883723,0,1,0,0,3.6679637,3.0702677,FALSE,0
34060,4.88E-04,-0.01953125,-1.0351562,-0.054275483,2.0294774,0.050018582,212.40001,20.1,-9.900001,42.32647,-2.9883723,0,1,0,0,3.6562142,3.0820172,FALSE,0
34102,4.88E-04,-0.01953125,-1.0351562,-0.054275483,2.0294774,0.050018582,212.40001,20.1,-9.900001,42.32647,-2.9883723,0,1,0,0,3.6562142,3.0820172,FALSE,0
34103,4.88E-04,-0.01953125,-1.0351562,-0.054275483,2.0294774,0.050018582,212.40001,20.1,-9.900001,42.32647,-2.9883723,0,1,0,0,3.6562142,3.0820172,FALSE,0
34103,4.88E-04,-0.01953125,-1.0351562,-0.054275483,2.0294774,0.050018582,212.40001,20.1,-9.900001,42.32647,-2.9883723,0,1,0,0,3.6562142,3.0820172,FALSE,0
34103,4.88E-04,-0.01953125,-1.0351562,-0.054275483,2.0294774,0.050018582,212.40001,20.1,-9.900001,42.32647,-2.9883723,0,1,0,0,3.6562142,3.0820172,FALSE,0
34103,4.88E-04,-0.01953125,-1.0351562,-0.054275483,2.0294774,0.050018582,212.40001,20.1,-9.900001,42.32647,-2.9883723,0,1,0,0,3.6562142,3.0820172,FALSE,0
34103,4.88E-04,-0.01953125,-1.0351562,-0.054275483,2.0294774,0.050018582,212.40001,20.1,-9.900001,42.32647,-2.9883723,0,1,0,0,3.6562142,3.0820172,FALSE,0
34104,4.88E-04,-0.01953125,-1.0351562,-0.054275483,2.0294774,0.050018582,212.40001,20.1,-9.900001,42.32647,-2.9883723,0,1,0,0,3.6562142,3.0820172,FALSE,0
34104,4.88E-04,-0.01953125,-1.0351562,-0.054275483,2.0294774,0.050018582,212.40001,20.1,-9.900001,42.32647,-2.9883723,0,1,0,0,3.6562142,3.0820172,FALSE,0
34104,4.88E-04,-0.01953125,-1.0351562,-0.054275483,2.0294774,0.050018582,212.40001,20.1,-9.900001,42.32647,-2.9883723,0,1,0,0,3.6562142,3.0820172,FALSE,0
34104,4.88E-04,-0.01953125,-1.0351562,-0.054275483,2.0294774,0.050018582,212.40001,20.1,-9.900001,42.32647,-2.9883723,0,1,0,0,3.6562142,3.0820172,FALSE,0
34104,4.88E-04,-0.01953125,-1.0351562,-0.054275483,2.0294774,0.050018582,212.40001,20.1,-9.900001,42.32647,-2.9883723,0,1,0,0,3.6562142,3.0820172,FALSE,0
34104,4.88E-04,-0.01953125,-1.0351562,-0.054275483,2.0294774,0.050018582,212.40001,20.1,-9.900001,42.32647,-2.9883723,0,1,0,0,3.6562142,3.0820172,FALSE,0
34104,4.88E-04,-0.01953125,-1.0351562,-0.054275483,2.0294774,0.050018582,212.40001,20.1,-9.900001,42.32647,-2.9883723,0,1,0,0,3.6562142,3.0820172,FALSE,0
34104,4.88E-04,-0.01953125,-1.0351562,-0.054275483,2.0294774,0.050018582,212.40001,20.1,-9.900001,42.32647,-2.9883723,0,1,0,0,3.6562142,3.0820172,FALSE,0
34104,4.88E-04,-0.01953125,-1.0351562,-0.054275483,2.0294774,0.050018582,212.40001,20.1,-9.900001,42.32647,-2.9883723,0,1,0,0,3.6562142,3.0820172,FALSE,0
34104,4.88E-04,-0.01953125,-1.0351562,-0.054275483,2.0294774,0.050018582,212.40001,20.1,-9.900001,42.32647,-2.9883723,0,1,0,0,3.6562142,3.0820172,FALSE,0
34104,4.88E-04,-0.01953125,-1.0351562,-0.054275483,2.0294774,0.050018582,212.40001,20.1,-9.900001,42.32647,-2.9883723,0,1,0,0,3.6562142,3.0820172,FALSE,0
34104,4.88E-04,-0.01953125,-1.0351562,-0.054275483,2.0294774,0.050018582,212.40001,20.1,-9.900001,42.32647,-2.9883723,0,1,0,0,3.6562142,3.0820172,FALSE,0
34104,4.88E-04,-0.01953125,-1.0351562,-0.054275483,2.0294774,0.050018582,212.40001,20.1,-9.900001,42.32647,-2.9883723,0,1,0,0,3.6562142,3.0820172,FALSE,0
34104,4.88E-04,-0.01953125,-1.0351562,-0.054275483,2.0294774,0.050018582,212.40001,20.1,-9.900001,42.32647,-2.9883723,0,1,0,0,3.6562142,3.0820172,FALSE,0
34104,4.88E-04,-0.01953125,-1.0351562,-0.054275483,2.0294774,0.050018582,212.40001,20.1,-9.900001,42.32647,-2.9883723,0,1,0,0,3.6562142,3.0820172,FALSE,0
34104,4.88E-04,-0.01953125,-1.0351562,-0.054275483,2.0294774,0.050018582,212.40001,20.1,-9.900001,42.32647,-2.9883723,0,1,0,0,3.6562142,3.0820172,FALSE,0
34104,4.88E-04,-0.01953125,-1.0351562,-0.054275483,2.0294774,0.050018582,212.40001,20.1,-9.900001,42.32647,-2.9883723,0,1,0,0,3.6562142,3.0820172,FALSE,0
34104,4.88E-04,-0.01953125,-1.0351562,-0.054275483,2.0294774,0.050018582,212.40001,20.1,-9.900001,42.32647,-2.9883723,0,1,0,0,3.6562142,3.0820172,FALSE,0
34104,4.88E-04,-0.01953125,-1.0351562,-0.054275483,2.0294774,0.050018582,212.40001,20.1,-9.900001,42.32647,-2.9883723,0,1,0,0,3.6562142,3.0820172,FALSE,0
34104,4.88E-04,-0.01953125,-1.0351562,-0.054275483,2.0294774,0.050018582,212.40001,20.1,-9.900001,42.32647,-2.9883723,0,1,0,0,3.6562142,3.0820172,FALSE,0
34104,4.88E-04,-0.01953125,-1.0351562,-0.054275483,2.0294774,0.050018582,212.40001,20.1,-9.900001,42.32647,-2.9883723,0,1,0,0,3.6562142,3.0820172,FALSE,0
34104,4.88E-04,-0.01953125,-1.0351562,-0.054275483,2.0294774,0.050018582,212.40001,20.1,-9.900001,42.32647,-2.9883723,0,1,0,0,3.6562142,3.0820172,FALSE,0
34105,4.88E-04,-0.01953125,-1.0351562,-0.054275483,2.0294774,0.050018582,212.40001,20.1,-9.900001,42.32647,-2.9883723,0,1,0,0,3.6562142,3.0820172,FALSE,0
34105,4.88E-04,-0.01953125,-1.0351562,-0.054275483,2.0294774,0.050018582,212.40001,20.1,-9.900001,42.32647,-2.9883723,0,1,0,0,3.6562142,3.0820172,FALSE,0
34105,4.88E-04,-0.01953125,-1.0351562,-0.054275483,2.0294774,0.050018582,212.40001,20.1,-9.900001,42.32647,-2.9883723,0,1,0,0,3.6562142,3.0820172,FALSE,0
34105,4.88E-04,-0.01953125,-1.0351562,-0.054275483,2.0294774,0.050018582,212.40001,20.1,-9.900001,42.32647,-2.9883723,0,1,0,0,3.6562142,3.0820172,FALSE,0
34105,4.88E-04,-0.01953125,-1.0351562,-0.054275483,2.0294774,0.050018582,212.40001,20.1,-9.900001,42.32647,-2.9883723,0,1,0,0,3.6562142,3.0820172,FALSE,0
34105,4.88E-04,-0.01953125,-1.0351562,-0.054275483,2.0294774,0.050018582,212.40001,20.1,-9.900001,42.32647,-2.9883723,0,1,0,0,3.6562142,3.0820172,FALSE,0
34105,4.88E-04,-0.01953125,-1.0351562,-0.054275483,2.0294774,0.050018582,212.40001,20.1,-9.900001,42.32647,-2.9883723,0,1,0,0,3.6562142,3.0820172,FALSE,0
34105,4.88E-04,-0.01953125,-1.0351562,-0.054275483,2.0294774,0.050018582,212.40001,20.1,-9.900001,42.32647,-2.9883723,0,1,0,0,3.6562142,3.0820172,FALSE,0
34105,4.88E-04,-0.01953125,-1.0351562,-0.054275483,2.0294774,0.050018582,212.40001,20.1,-9.900001,42.32647,-2.9883723,0,1,0,0,3.6562142,3.0820172,FALSE,0
34105,4.88E-04,-0.01953125,-1.0351562,-0.054275483,2.0294774,0.050018582,212.40001,20.1,-9.900001,42.32647,-2.9883723,0,1,0,0,3.6562142,3.0820172,FALSE,0
34105,4.88E-04,-0.01953125,-1.0351562,-0.054275483,2.0294774,0.050018582,212.40001,20.1,-9.900001,42.32647,-2.9883723,0,1,0,0,3.6562142,3.0820172,FALSE,0
34105,4.88E-04,-0.01953125,-1.0351562,-0.054275483,2.0294774,0.050018582,212.40001,20.1,-9.900001,42.32647,-2.9883723,0,1,0,0,3.6562142,3.0820172,FALSE,0
34105,4.88E-04,-0.01953125,-1.0351562,-0.054275483,2.0294774,0.050018582,212.40001,20.1,-9.900001,42.32647,-2.9883723,0,1,0,0,3.6562142,3.0820172,FALSE,0
34105,4.88E-04,-0.01953125,-1.0351562,-0.054275483,2.0294774,0.050018582,212.40001,20.1,-9.900001,42.32647,-2.9883723,0,1,0,0,3.6562142,3.0820172,FALSE,0
34105,-0.004882813,-0.0234375,-1.0307617,-0.05108281,2.0294774,0.05214703,213.3,16.5,-7.8,42.35,-2.9883723,0,1,0,0,3.6679637,3.0702677,FALSE,0
34151,-0.004882813,-0.0234375,-1.0307617,-0.05108281,2.0294774,0.05214703,213.3,16.5,-7.8,42.35,-2.9883723,0,1,0,0,3.6679637,3.0702677,FALSE,0
34151,-0.004882813,-0.0234375,-1.0307617,-0.05108281,2.0294774,0.05214703,213.3,16.5,-7.8,42.35,-2.9883723,0,1,0,0,3.6679637,3.0702677,FALSE,0
34151,-0.004882813,-0.0234375,-1.0307617,-0.05108281,2.0294774,0.05214703,213.3,16.5,-7.8,42.35,-2.9883723,0,1,0,0,3.6679637,3.0702677,FALSE,0
34151,-0.004882813,-0.0234375,-1.0307617,-0.05108281,2.0294774,0.05214703,213.3,16.5,-7.8,42.35,-2.9883723,0,1,0,0,3.6679637,3.0702677,FALSE,0
34151,-0.004882813,-0.0234375,-1.0307617,-0.05108281,2.0294774,0.05214703,213.3,16.5,-7.8,42.35,-2.9883723,0,1,0,0,3.6679637,3.0702677,FALSE,0
34151,-0.004882813,-0.0234375,-1.0307617,-0.05108281,2.0294774,0.05214703,213.3,16.5,-7.8,42.35,-2.9883723,0,1,0,0,3.6679637,3.0702677,FALSE,0
34152,-0.004882813,-0.0234375,-1.0307617,-0.05108281,2.0294774,0.05214703,213.3,16.5,-7.8,42.35,-2.9883723,0,1,0,0,3.6679637,3.0702677,FALSE,0
34152,-0.004882813,-0.0234375,-1.0307617,-0.05108281,2.0294774,0.05214703,213.3,16.5,-7.8,42.35,-2.9883723,0,1,0,0,3.6679637,3.0702677,FALSE,0
34152,-0.004882813,-0.0234375,-1.0307617,-0.05108281,2.0294774,0.05214703,213.3,16.5,-7.8,42.35,-2.9883723,0,1,0,0,3.6679637,3.0702677,FALSE,0
34152,-0.004882813,-0.0234375,-1.0307617,-0.05108281,2.0294774,0.05214703,213.3,16.5,-7.8,42.35,-2.9883723,0,1,0,0,3.6679637,3.0702677,FALSE,0
34152,-0.004882813,-0.0234375,-1.0307617,-0.05108281,2.0294774,0.05214703,213.3,16.5,-7.8,42.35,-2.9883723,0,1,0,0,3.6679637,3.0702677,FALSE,0
34152,-0.004882813,-0.0234375,-1.0307617,-0.05108281,2.0294774,0.05214703,213.3,16.5,-7.8,42.35,-2.9883723,0,1,0,0,3.6679637,3.0702677,FALSE,0
34152,-0.004882813,-0.0234375,-1.0307617,-0.05108281,2.0294774,0.05214703,213.3,16.5,-7.8,42.35,-2.9883723,0,1,0,0,3.6679637,3.0702677,FALSE,0
34152,-0.004882813,-0.0234375,-1.0307617,-0.05108281,2.0294774,0.05214703,213.3,16.5,-7.8,42.35,-2.9883723,0,1,0,0,3.6679637,3.0702677,FALSE,0
34152,-0.004882813,-0.0234375,-1.0307617,-0.05108281,2.0294774,0.05214703,213.3,16.5,-7.8,42.35,-2.9883723,0,1,0,0,3.6679637,3.0702677,FALSE,0
34152,-0.004882813,-0.0234375,-1.0307617,-0.05108281,2.0294774,0.05214703,213.3,16.5,-7.8,42.35,-2.9883723,0,1,0,0,3.6679637,3.0702677,FALSE,0
34152,-0.004882813,-0.0234375,-1.0307617,-0.05108281,2.0294774,0.05214703,213.3,16.5,-7.8,42.35,-2.9883723,0,1,0,0,3.6679637,3.0702677,FALSE,0
34152,-0.004882813,-0.0234375,-1.0307617,-0.05108281,2.0294774,0.05214703,213.3,16.5,-7.8,42.35,-2.9883723,0,1,0,0,3.6679637,3.0702677,FALSE,0
34152,-0.004882813,-0.0234375,-1.0307617,-0.05108281,2.0294774,0.05214703,213.3,16.5,-7.8,42.35,-2.9883723,0,1,0,0,3.6679637,3.0702677,FALSE,0
34152,-0.004882813,-0.0234375,-1.0307617,-0.05108281,2.0294774,0.05214703,213.3,16.5,-7.8,42.35,-2.9883723,0,1,0,0,3.6679637,3.0702677,FALSE,0
34153,-0.004882813,-0.0234375,-1.0307617,-0.05108281,2.0294774,0.05214703,213.3,16.5,-7.8,42.35,-2.9883723,0,1,0,0,3.6679637,3.0702677,FALSE,0
34153,-0.004882813,-0.0234375,-1.0307617,-0.05108281,2.0294774,0.05214703,213.3,16.5,-7.8,42.35,-2.9883723,0,1,0,0,3.6679637,3.0702677,FALSE,0
34169,-0.004882813,-0.0234375,-1.0307617,-0.05108281,2.0294774,0.05214703,213.3,16.5,-7.8,42.35,-2.9883723,0,1,0,0,3.6679637,3.0702677,FALSE,0
34169,-0.004882813,-0.0234375,-1.0307617,-0.05108281,2.0294774,0.05214703,213.3,16.5,-7.8,42.35,-2.9883723,0,1,0,0,3.6679637,3.0702677,FALSE,0
34170,-0.004882813,-0.0234375,-1.0307617,-0.05108281,2.0294774,0.05214703,213.3,16.5,-7.8,42.35,-2.9883723,0,1,0,0,3.6679637,3.0702677,FALSE,0
34170,-0.004882813,-0.0234375,-1.0307617,-0.05108281,2.0294774,0.05214703,213.3,16.5,-7.8,42.35,-2.9883723,0,1,0,0,3.6679637,3.0702677,FALSE,0
34170,-0.004882813,-0.0234375,-1.0307617,-0.05108281,2.0294774,0.05214703,213.3,16.5,-7.8,42.35,-2.9883723,0,1,0,0,3.6679637,3.0702677,FALSE,0
34170,-0.004882813,-0.0234375,-1.0307617,-0.05108281,2.0294774,0.05214703,213.3,16.5,-7.8,42.35,-2.9883723,0,1,0,0,3.6679637,3.0702677,FALSE,0
34170,-0.004882813,-0.0234375,-1.0307617,-0.05108281,2.0294774,0.05214703,213.3,16.5,-7.8,42.35,-2.9883723,0,1,0,0,3.6679637,3.0702677,FALSE,0
34170,-0.004882813,-0.0234375,-1.0307617,-0.05108281,2.0294774,0.05214703,213.3,16.5,-7.8,42.35,-2.9883723,0,1,0,0,3.6679637,3.0702677,FALSE,0
34170,-0.004882813,-0.0234375,-1.0307617,-0.05108281,2.0294774,0.05214703,213.3,16.5,-7.8,42.35,-2.9883723,0,1,0,0,3.6679637,3.0702677,FALSE,0
34170,-0.004882813,-0.0234375,-1.0307617,-0.05108281,2.0294774,0.05214703,213.3,16.5,-7.8,42.35,-2.9883723,0,1,0,0,3.6679637,3.0702677,FALSE,0
34170,-0.004882813,-0.0234375,-1.0307617,-0.05108281,2.0294774,0.05214703,213.3,16.5,-7.8,42.35,-2.9883723,0,1,0,0,3.6679637,3.0702677,FALSE,0
34170,-0.004882813,-0.0234375,-1.0307617,-0.05108281,2.0294774,0.05214703,213.3,16.5,-7.8,42.35,-2.9883723,0,1,0,0,3.6679637,3.0702677,FALSE,0
34170,-0.004882813,-0.0234375,-1.0307617,-0.05108281,2.0294774,0.05214703,213.3,16.5,-7.8,42.35,-2.9883723,0,1,0,0,3.6679637,3.0702677,FALSE,0
34170,-0.004882813,-0.0234375,-1.0307617,-0.05108281,2.0294774,0.05214703,213.3,16.5,-7.8,42.35,-2.9883723,0,1,0,0,3.6679637,3.0702677,FALSE,0
34170,-0.004882813,-0.0234375,-1.0307617,-0.05108281,2.0294774,0.05214703,213.3,16.5,-7.8,42.35,-2.9883723,0,1,0,0,3.6679637,3.0702677,FALSE,0
34170,-0.004882813,-0.0234375,-1.0307617,-0.05108281,2.0294774,0.05214703,213.3,16.5,-7.8,42.35,-2.9883723,0,1,0,0,3.6679637,3.0702677,FALSE,0
34170,-0.004882813,-0.0234375,-1.0307617,-0.05108281,2.0294774,0.05214703,213.3,16.5,-7.8,42.35,-2.9883723,0,1,0,0,3.6679637,3.0702677,FALSE,0
34170,-0.004882813,-0.0234375,-1.0307617,-0.05108281,2.0294774,0.05214703,213.3,16.5,-7.8,42.35,-2.9883723,0,1,0,0,3.6679637,3.0702677,FALSE,0
34170,-0.004882813,-0.0234375,-1.0307617,-0.05108281,2.0294774,0.05214703,213.3,16.5,-7.8,42.35,-2.9883723,0,1,0,0,3.6679637,3.0702677,FALSE,0
34170,-0.004882813,-0.0234375,-1.0307617,-0.05108281,2.0294774,0.05214703,213.3,16.5,-7.8,42.35,-2.9883723,0,1,0,0,3.6679637,3.0702677,FALSE,0
34170,-0.004882813,-0.022949219,-1.0341797,-0.053211257,2.0305417,0.05108281,210.6,19.800001,-9.6,42.338234,-2.9883723,0,1,0,0,3.6679637,3.0702677,FALSE,0
34213,-0.004882813,-0.022949219,-1.0341797,-0.053211257,2.0305417,0.05108281,210.6,19.800001,-9.6,42.338234,-2.9883723,0,1,0,0,3.6679637,3.0702677,FALSE,0
34213,-0.004882813,-0.022949219,-1.0341797,-0.053211257,2.0305417,0.05108281,210.6,19.800001,-9.6,42.338234,-2.9883723,0,1,0,0,3.6679637,3.0702677,FALSE,0
34213,-0.004882813,-0.022949219,-1.0341797,-0.053211257,2.0305417,0.05108281,210.6,19.800001,-9.6,42.338234,-2.9883723,0,1,0,0,3.6679637,3.0702677,FALSE,0
34213,-0.004882813,-0.022949219,-1.0341797,-0.053211257,2.0305417,0.05108281,210.6,19.800001,-9.6,42.338234,-2.9883723,0,1,0,0,3.6679637,3.0702677,FALSE,0
34214,-0.004882813,-0.022949219,-1.0341797,-0.053211257,2.0305417,0.05108281,210.6,19.800001,-9.6,42.338234,-2.9883723,0,1,0,0,3.6679637,3.0702677,FALSE,0
34214,-0.004882813,-0.022949219,-1.0341797,-0.053211257,2.0305417,0.05108281,210.6,19.800001,-9.6,42.338234,-2.9883723,0,1,0,0,3.6679637,3.0702677,FALSE,0
34214,-0.004882813,-0.022949219,-1.0341797,-0.053211257,2.0305417,0.05108281,210.6,19.800001,-9.6,42.338234,-2.9883723,0,1,0,0,3.6679637,3.0702677,FALSE,0
34214,-0.004882813,-0.022949219,-1.0341797,-0.053211257,2.0305417,0.05108281,210.6,19.800001,-9.6,42.338234,-2.9883723,0,1,0,0,3.6679637,3.0702677,FALSE,0
34214,-0.004882813,-0.022949219,-1.0341797,-0.053211257,2.0305417,0.05108281,210.6,19.800001,-9.6,42.338234,-2.9883723,0,1,0,0,3.6679637,3.0702677,FALSE,0
34214,-0.004882813,-0.022949219,-1.0341797,-0.053211257,2.0305417,0.05108281,210.6,19.800001,-9.6,42.338234,-2.9883723,0,1,0,0,3.6679637,3.0702677,FALSE,0
34214,-0.004882813,-0.022949219,-1.0341797,-0.053211257,2.0305417,0.05108281,210.6,19.800001,-9.6,42.338234,-2.9883723,0,1,0,0,3.6679637,3.0702677,FALSE,0
34214,-0.004882813,-0.022949219,-1.0341797,-0.053211257,2.0305417,0.05108281,210.6,19.800001,-9.6,42.338234,-2.9883723,0,1,0,0,3.6679637,3.0702677,FALSE,0
34214,-0.004882813,-0.022949219,-1.0341797,-0.053211257,2.0305417,0.05108281,210.6,19.800001,-9.6,42.338234,-2.9883723,0,1,0,0,3.6679637,3.0702677,FALSE,0
34214,-0.004882813,-0.022949219,-1.0341797,-0.053211257,2.0305417,0.05108281,210.6,19.800001,-9.6,42.338234,-2.9883723,0,1,0,0,3.6679637,3.0702677,FALSE,0
34214,-0.004882813,-0.022949219,-1.0341797,-0.053211257,2.0305417,0.05108281,210.6,19.800001,-9.6,42.338234,-2.9883723,0,1,0,0,3.6679637,3.0702677,FALSE,0
34214,-0.004882813,-0.022949219,-1.0341797,-0.053211257,2.0305417,0.05108281,210.6,19.800001,-9.6,42.338234,-2.9883723,0,1,0,0,3.6679637,3.0702677,FALSE,0
34214,-0.004882813,-0.022949219,-1.0341797,-0.053211257,2.0305417,0.05108281,210.6,19.800001,-9.6,42.338234,-2.9883723,0,1,0,0,3.6679637,3.0702677,FALSE,0
34214,-0.004882813,-0.022949219,-1.0341797,-0.053211257,2.0305417,0.05108281,210.6,19.800001,-9.6,42.338234,-2.9883723,0,1,0,0,3.6679637,3.0702677,FALSE,0
34214,-0.004882813,-0.022949219,-1.0341797,-0.053211257,2.0305417,0.05108281,210.6,19.800001,-9.6,42.338234,-2.9883723,0,1,0,0,3.6679637,3.0702677,FALSE,0
34214,-0.004882813,-0.022949219,-1.0341797,-0.053211257,2.0305417,0.05108281,210.6,19.800001,-9.6,42.338234,-2.9883723,0,1,0,0,3.6679637,3.0702677,FALSE,0
34214,-0.004882813,-0.022949219,-1.0341797,-0.053211257,2.0305417,0.05108281,210.6,19.800001,-9.6,42.338234,-2.9883723,0,1,0,0,3.6679637,3.0702677,FALSE,0
34214,-0.004882813,-0.022949219,-1.0341797,-0.053211257,2.0305417,0.05108281,210.6,19.800001,-9.6,42.338234,-2.9883723,0,1,0,0,3.6679637,3.0702677,FALSE,0
34214,-0.004882813,-0.022949219,-1.0341797,-0.053211257,2.0305417,0.05108281,210.6,19.800001,-9.6,42.338234,-2.9883723,0,1,0,0,3.6679637,3.0702677,FALSE,0
34214,-0.004882813,-0.022949219,-1.0341797,-0.053211257,2.0305417,0.05108281,210.6,19.800001,-9.6,42.338234,-2.9883723,0,1,0,0,3.6679637,3.0702677,FALSE,0
34214,-0.004882813,-0.022949219,-1.0341797,-0.053211257,2.0305417,0.05108281,210.6,19.800001,-9.6,42.338234,-2.9883723,0,1,0,0,3.6679637,3.0702677,FALSE,0
34214,-0.004882813,-0.022949219,-1.0341797,-0.053211257,2.0305417,0.05108281,210.6,19.800001,-9.6,42.338234,-2.9883723,0,1,0,0,3.6679637,3.0702677,FALSE,0
34215,-0.004882813,-0.022949219,-1.0341797,-0.053211257,2.0305417,0.05108281,210.6,19.800001,-9.6,42.338234,-2.9883723,0,1,0,0,3.6679637,3.0702677,FALSE,0
34215,-0.004882813,-0.022949219,-1.0341797,-0.053211257,2.0305417,0.05108281,210.6,19.800001,-9.6,42.338234,-2.9883723,0,1,0,0,3.6679637,3.0702677,FALSE,0
34215,-0.004882813,-0.022949219,-1.0341797,-0.053211257,2.0305417,0.05108281,210.6,19.800001,-9.6,42.338234,-2.9883723,0,1,0,0,3.6679637,3.0702677,FALSE,0
34215,-0.004882813,-0.022949219,-1.0341797,-0.053211257,2.0305417,0.05108281,210.6,19.800001,-9.6,42.338234,-2.9883723,0,1,0,0,3.6679637,3.0702677,FALSE,0
34215,-0.004882813,-0.022949219,-1.0341797,-0.053211257,2.0305417,0.05108281,210.6,19.800001,-9.6,42.338234,-2.9883723,0,1,0,0,3.6679637,3.0702677,FALSE,0
34215,-0.004882813,-0.022949219,-1.0341797,-0.053211257,2.0305417,0.05108281,210.6,19.800001,-9.6,42.338234,-2.9883723,0,1,0,0,3.6679637,3.0702677,FALSE,0
34215,-0.004882813,-0.022949219,-1.0341797,-0.053211257,2.0305417,0.05108281,210.6,19.800001,-9.6,42.338234,-2.9883723,0,1,0,0,3.6679637,3.0702677,FALSE,0
34215,-0.004882813,-0.022949219,-1.0341797,-0.053211257,2.0305417,0.05108281,210.6,19.800001,-9.6,42.338234,-2.9883723,0,1,0,0,3.6679637,3.0702677,FALSE,0
34215,-0.004882813,-0.022949219,-1.0341797,-0.053211257,2.0305417,0.05108281,210.6,19.800001,-9.6,42.338234,-2.9883723,0,1,0,0,3.6679637,3.0702677,FALSE,0
34215,-0.004882813,-0.022949219,-1.0341797,-0.053211257,2.0305417,0.05108281,210.6,19.800001,-9.6,42.338234,-2.9883723,0,1,0,0,3.6679637,3.0702677,FALSE,0
34215,-0.004882813,-0.022949219,-1.0341797,-0.053211257,2.0305417,0.05108281,210.6,19.800001,-9.6,42.338234,-2.9883723,0,1,0,0,3.6679637,3.0702677,FALSE,0
34215,-0.004882813,-0.022949219,-1.0341797,-0.053211257,2.0305417,0.05108281,210.6,19.800001,-9.6,42.338234,-2.9883723,0,1,0,0,3.6679637,3.0702677,FALSE,0
34215,-0.004882813,-0.022949219,-1.0341797,-0.053211257,2.0305417,0.05108281,210.6,19.800001,-9.6,42.338234,-2.9883723,0,1,0,0,3.6679637,3.0702677,FALSE,0
34215,-0.004882813,-0.022949219,-1.0341797,-0.053211257,2.0305417,0.05108281,210.6,19.800001,-9.6,42.338234,-2.9883723,0,1,0,0,3.6679637,3.0702677,FALSE,0
34215,-0.004882813,-0.022949219,-1.0341797,-0.053211257,2.0305417,0.05108281,210.6,19.800001,-9.6,42.338234,-2.9883723,0,1,0,0,3.6679637,3.0702677,FALSE,0
34215,-0.004882813,-0.022949219,-1.0341797,-0.053211257,2.0305417,0.05108281,210.6,19.800001,-9.6,42.338234,-2.9883723,0,1,0,0,3.6679637,3.0702677,FALSE,0
34215,-0.004882813,-0.021972656,-1.0351562,-0.05108281,2.0305417,0.05214703,210.6,16.2,-10.200001,42.344116,-2.9883723,0,1,0,0,3.6679637,3.0702677,FALSE,0
34257,-0.004882813,-0.021972656,-1.0351562,-0.05108281,2.0305417,0.05214703,210.6,16.2,-10.200001,42.344116,-2.9883723,0,1,0,0,3.6679637,3.0702677,FALSE,0
34257,-0.004882813,-0.021972656,-1.0351562,-0.05108281,2.0305417,0.05214703,210.6,16.2,-10.200001,42.344116,-2.9883723,0,1,0,0,3.6679637,3.0702677,FALSE,0
34257,-0.004882813,-0.021972656,-1.0351562,-0.05108281,2.0305417,0.05214703,210.6,16.2,-10.200001,42.344116,-2.9883723,0,1,0,0,3.6679637,3.0702677,FALSE,0
34257,-0.004882813,-0.021972656,-1.0351562,-0.05108281,2.0305417,0.05214703,210.6,16.2,-10.200001,42.344116,-2.9883723,0,1,0,0,3.6679637,3.0702677,FALSE,0
34257,-0.004882813,-0.021972656,-1.0351562,-0.05108281,2.0305417,0.05214703,210.6,16.2,-10.200001,42.344116,-2.9883723,0,1,0,0,3.6679637,3.0702677,FALSE,0
34257,-0.004882813,-0.021972656,-1.0351562,-0.05108281,2.0305417,0.05214703,210.6,16.2,-10.200001,42.344116,-2.9883723,0,1,0,0,3.6679637,3.0702677,FALSE,0
34257,-0.004882813,-0.021972656,-1.0351562,-0.05108281,2.0305417,0.05214703,210.6,16.2,-10.200001,42.344116,-2.9883723,0,1,0,0,3.6679637,3.0702677,FALSE,0
34257,-0.004882813,-0.021972656,-1.0351562,-0.05108281,2.0305417,0.05214703,210.6,16.2,-10.200001,42.344116,-2.9883723,0,1,0,0,3.6679637,3.0702677,FALSE,0
34258,-0.004882813,-0.021972656,-1.0351562,-0.05108281,2.0305417,0.05214703,210.6,16.2,-10.200001,42.344116,-2.9883723,0,1,0,0,3.6679637,3.0702677,FALSE,0
34265,-0.004882813,-0.021972656,-1.0351562,-0.05108281,2.0305417,0.05214703,210.6,16.2,-10.200001,42.344116,-2.9883723,0,1,0,0,3.6679637,3.0702677,FALSE,0
34265,-0.004882813,-0.021972656,-1.0351562,-0.05108281,2.0305417,0.05214703,210.6,16.2,-10.200001,42.344116,-2.9883723,0,1,0,0,3.6679637,3.0702677,FALSE,0
34265,-0.004882813,-0.021972656,-1.0351562,-0.05108281,2.0305417,0.05214703,210.6,16.2,-10.200001,42.344116,-2.9883723,0,1,0,0,3.6679637,3.0702677,FALSE,0
34265,-0.004882813,-0.021972656,-1.0351562,-0.05108281,2.0305417,0.05214703,210.6,16.2,-10.200001,42.344116,-2.9883723,0,1,0,0,3.6679637,3.0702677,FALSE,0
34265,-0.004882813,-0.021972656,-1.0351562,-0.05108281,2.0305417,0.05214703,210.6,16.2,-10.200001,42.344116,-2.9883723,0,1,0,0,3.6679637,3.0702677,FALSE,0
34265,-0.004882813,-0.021972656,-1.0351562,-0.05108281,2.0305417,0.05214703,210.6,16.2,-10.200001,42.344116,-2.9883723,0,1,0,0,3.6679637,3.0702677,FALSE,0
34265,-0.004882813,-0.021972656,-1.0351562,-0.05108281,2.0305417,0.05214703,210.6,16.2,-10.200001,42.344116,-2.9883723,0,1,0,0,3.6679637,3.0702677,FALSE,0
34265,-0.004882813,-0.021972656,-1.0351562,-0.05108281,2.0305417,0.05214703,210.6,16.2,-10.200001,42.344116,-2.9883723,0,1,0,0,3.6679637,3.0702677,FALSE,0
34265,-0.004882813,-0.021972656,-1.0351562,-0.05108281,2.0305417,0.05214703,210.6,16.2,-10.200001,42.344116,-2.9883723,0,1,0,0,3.6679637,3.0702677,FALSE,0
34265,-0.004882813,-0.021972656,-1.0351562,-0.05108281,2.0305417,0.05214703,210.6,16.2,-10.200001,42.344116,-2.9883723,0,1,0,0,3.6679637,3.0702677,FALSE,0
34265,-0.004882813,-0.021972656,-1.0351562,-0.05108281,2.0305417,0.05214703,210.6,16.2,-10.200001,42.344116,-2.9883723,0,1,0,0,3.6679637,3.0702677,FALSE,0
34265,-0.004882813,-0.021972656,-1.0351562,-0.05108281,2.0305417,0.05214703,210.6,16.2,-10.200001,42.344116,-2.9883723,0,1,0,0,3.6679637,3.0702677,FALSE,0
34265,-0.004882813,-0.021972656,-1.0351562,-0.05108281,2.0305417,0.05214703,210.6,16.2,-10.200001,42.344116,-2.9883723,0,1,0,0,3.6679637,3.0702677,FALSE,0
34265,-0.004882813,-0.021972656,-1.0351562,-0.05108281,2.0305417,0.05214703,210.6,16.2,-10.200001,42.344116,-2.9883723,0,1,0,0,3.6679637,3.0702677,FALSE,0
34265,-0.004882813,-0.021972656,-1.0351562,-0.05108281,2.0305417,0.05214703,210.6,16.2,-10.200001,42.344116,-2.9883723,0,1,0,0,3.6679637,3.0702677,FALSE,0
34266,-0.004882813,-0.021972656,-1.0351562,-0.05108281,2.0305417,0.05214703,210.6,16.2,-10.200001,42.344116,-2.9883723,0,1,0,0,3.6679637,3.0702677,FALSE,0
34266,-0.004882813,-0.021972656,-1.0351562,-0.05108281,2.0305417,0.05214703,210.6,16.2,-10.200001,42.344116,-2.9883723,0,1,0,0,3.6679637,3.0702677,FALSE,0
34266,-0.004882813,-0.021972656,-1.0351562,-0.05108281,2.0305417,0.05214703,210.6,16.2,-10.200001,42.344116,-2.9883723,0,1,0,0,3.6679637,3.0702677,FALSE,0
34266,-0.004882813,-0.021972656,-1.0351562,-0.05108281,2.0305417,0.05214703,210.6,16.2,-10.200001,42.344116,-2.9883723,0,1,0,0,3.6679637,3.0702677,FALSE,0
34266,-0.004882813,-0.021972656,-1.0351562,-0.05108281,2.0305417,0.05214703,210.6,16.2,-10.200001,42.344116,-2.9883723,0,1,0,0,3.6679637,3.0702677,FALSE,0
34266,-0.004882813,-0.021972656,-1.0351562,-0.05108281,2.0305417,0.05214703,210.6,16.2,-10.200001,42.344116,-2.9883723,0,1,0,0,3.6679637,3.0702677,FALSE,0
34266,-0.004882813,-0.021972656,-1.0351562,-0.05108281,2.0305417,0.05214703,210.6,16.2,-10.200001,42.344116,-2.9883723,0,1,0,0,3.6679637,3.0702677,FALSE,0
34266,-0.004882813,-0.021972656,-1.0351562,-0.05108281,2.0305417,0.05214703,210.6,16.2,-10.200001,42.344116,-2.9883723,0,1,0,0,3.6679637,3.0702677,FALSE,0
34266,-0.004882813,-0.021972656,-1.0351562,-0.05108281,2.0305417,0.05214703,210.6,16.2,-10.200001,42.344116,-2.9883723,0,1,0,0,3.6679637,3.0702677,FALSE,0
34266,-0.004882813,-0.021972656,-1.0351562,-0.05108281,2.0305417,0.05214703,210.6,16.2,-10.200001,42.344116,-2.9883723,0,1,0,0,3.6679637,3.0702677,FALSE,0
34266,-0.004882813,-0.021972656,-1.0351562,-0.05108281,2.0305417,0.05214703,210.6,16.2,-10.200001,42.344116,-2.9883723,0,1,0,0,3.6679637,3.0702677,FALSE,0
34266,-0.004882813,-0.021972656,-1.0351562,-0.05108281,2.0305417,0.05214703,210.6,16.2,-10.200001,42.344116,-2.9883723,0,1,0,0,3.6679637,3.0702677,FALSE,0
34266,-0.004882813,-0.021972656,-1.0351562,-0.05108281,2.0305417,0.05214703,210.6,16.2,-10.200001,42.344116,-2.9883723,0,1,0,0,3.6679637,3.0702677,FALSE,0
34266,-0.004882813,-0.021972656,-1.0351562,-0.05108281,2.0305417,0.05214703,210.6,16.2,-10.200001,42.344116,-2.9883723,0,1,0,0,3.6679637,3.0702677,FALSE,0
34266,-0.004882813,-0.021972656,-1.0351562,-0.05108281,2.0305417,0.05214703,210.6,16.2,-10.200001,42.344116,-2.9883723,0,1,0,0,3.6679637,3.0702677,FALSE,0
34266,-0.004882813,-0.021972656,-1.0351562,-0.05108281,2.0305417,0.05214703,210.6,16.2,-10.200001,42.344116,-2.9883723,0,1,0,0,3.6679637,3.0702677,FALSE,0
34266,-0.004882813,-0.021972656,-1.0351562,-0.05108281,2.0305417,0.05214703,210.6,16.2,-10.200001,42.344116,-2.9883723,0,1,0,0,3.6679637,3.0702677,FALSE,0
34266,-0.004882813,-0.021972656,-1.0351562,-0.05108281,2.0305417,0.05214703,210.6,16.2,-10.200001,42.344116,-2.9883723,0,1,0,0,3.6679637,3.0702677,FALSE,0
34266,-0.00390625,-0.022460938,-1.0341797,-0.053211257,2.031606,0.05214703,210.3,18.6,-9.3,42.33235,-2.9883723,0,1,0,0,3.673762,3.0702677,FALSE,0
34308,-0.00390625,-0.022460938,-1.0341797,-0.053211257,2.031606,0.05214703,210.3,18.6,-9.3,42.33235,-2.9883723,0,1,0,0,3.673762,3.0702677,FALSE,0
34308,-0.00390625,-0.022460938,-1.0341797,-0.053211257,2.031606,0.05214703,210.3,18.6,-9.3,42.33235,-2.9883723,0,1,0,0,3.673762,3.0702677,FALSE,0
34308,-0.00390625,-0.022460938,-1.0341797,-0.053211257,2.031606,0.05214703,210.3,18.6,-9.3,42.33235,-2.9883723,0,1,0,0,3.673762,3.0702677,FALSE,0
34308,-0.00390625,-0.022460938,-1.0341797,-0.053211257,2.031606,0.05214703,210.3,18.6,-9.3,42.33235,-2.9883723,0,1,0,0,3.673762,3.0702677,FALSE,0
34308,-0.00390625,-0.022460938,-1.0341797,-0.053211257,2.031606,0.05214703,210.3,18.6,-9.3,42.33235,-2.9883723,0,1,0,0,3.673762,3.0702677,FALSE,0
34308,-0.00390625,-0.022460938,-1.0341797,-0.053211257,2.031606,0.05214703,210.3,18.6,-9.3,42.33235,-2.9883723,0,1,0,0,3.673762,3.0702677,FALSE,0
34308,-0.00390625,-0.022460938,-1.0341797,-0.053211257,2.031606,0.05214703,210.3,18.6,-9.3,42.33235,-2.9883723,0,1,0,0,3.673762,3.0702677,FALSE,0
34308,-0.00390625,-0.022460938,-1.0341797,-0.053211257,2.031606,0.05214703,210.3,18.6,-9.3,42.33235,-2.9883723,0,1,0,0,3.673762,3.0702677,FALSE,0
34308,-0.00390625,-0.022460938,-1.0341797,-0.053211257,2.031606,0.05214703,210.3,18.6,-9.3,42.33235,-2.9883723,0,1,0,0,3.673762,3.0702677,FALSE,0
34308,-0.00390625,-0.022460938,-1.0341797,-0.053211257,2.031606,0.05214703,210.3,18.6,-9.3,42.33235,-2.9883723,0,1,0,0,3.673762,3.0702677,FALSE,0
34309,-0.00390625,-0.022460938,-1.0341797,-0.053211257,2.031606,0.05214703,210.3,18.6,-9.3,42.33235,-2.9883723,0,1,0,0,3.673762,3.0702677,FALSE,0
34309,-0.00390625,-0.022460938,-1.0341797,-0.053211257,2.031606,0.05214703,210.3,18.6,-9.3,42.33235,-2.9883723,0,1,0,0,3.673762,3.0702677,FALSE,0
34309,-0.00390625,-0.022460938,-1.0341797,-0.053211257,2.031606,0.05214703,210.3,18.6,-9.3,42.33235,-2.9883723,0,1,0,0,3.673762,3.0702677,FALSE,0
34309,-0.00390625,-0.022460938,-1.0341797,-0.053211257,2.031606,0.05214703,210.3,18.6,-9.3,42.33235,-2.9883723,0,1,0,0,3.673762,3.0702677,FALSE,0
34309,-0.00390625,-0.022460938,-1.0341797,-0.053211257,2.031606,0.05214703,210.3,18.6,-9.3,42.33235,-2.9883723,0,1,0,0,3.673762,3.0702677,FALSE,0
34309,-0.00390625,-0.022460938,-1.0341797,-0.053211257,2.031606,0.05214703,210.3,18.6,-9.3,42.33235,-2.9883723,0,1,0,0,3.673762,3.0702677,FALSE,0
34309,-0.00390625,-0.022460938,-1.0341797,-0.053211257,2.031606,0.05214703,210.3,18.6,-9.3,42.33235,-2.9883723,0,1,0,0,3.673762,3.0702677,FALSE,0
34309,-0.00390625,-0.022460938,-1.0341797,-0.053211257,2.031606,0.05214703,210.3,18.6,-9.3,42.33235,-2.9883723,0,1,0,0,3.673762,3.0702677,FALSE,0
34309,-0.00390625,-0.022460938,-1.0341797,-0.053211257,2.031606,0.05214703,210.3,18.6,-9.3,42.33235,-2.9883723,0,1,0,0,3.673762,3.0702677,FALSE,0
34309,-0.00390625,-0.022460938,-1.0341797,-0.053211257,2.031606,0.05214703,210.3,18.6,-9.3,42.33235,-2.9883723,0,1,0,0,3.673762,3.0702677,FALSE,0
34309,-0.00390625,-0.022460938,-1.0341797,-0.053211257,2.031606,0.05214703,210.3,18.6,-9.3,42.33235,-2.9883723,0,1,0,0,3.673762,3.0702677,FALSE,0
34309,-0.00390625,-0.022460938,-1.0341797,-0.053211257,2.031606,0.05214703,210.3,18.6,-9.3,42.33235,-2.9883723,0,1,0,0,3.673762,3.0702677,FALSE,0
34309,-0.00390625,-0.022460938,-1.0341797,-0.053211257,2.031606,0.05214703,210.3,18.6,-9.3,42.33235,-2.9883723,0,1,0,0,3.673762,3.0702677,FALSE,0
34309,-0.00390625,-0.022460938,-1.0341797,-0.053211257,2.031606,0.05214703,210.3,18.6,-9.3,42.33235,-2.9883723,0,1,0,0,3.673762,3.0702677,FALSE,0
34309,-0.00390625,-0.022460938,-1.0341797,-0.053211257,2.031606,0.05214703,210.3,18.6,-9.3,42.33235,-2.9883723,0,1,0,0,3.673762,3.0702677,FALSE,0
34309,-0.00390625,-0.022460938,-1.0341797,-0.053211257,2.031606,0.05214703,210.3,18.6,-9.3,42.33235,-2.9883723,0,1,0,0,3.673762,3.0702677,FALSE,0
34309,-0.00390625,-0.022460938,-1.0341797,-0.053211257,2.031606,0.05214703,210.3,18.6,-9.3,42.33235,-2.9883723,0,1,0,0,3.673762,3.0702677,FALSE,0
34309,-0.00390625,-0.022460938,-1.0341797,-0.053211257,2.031606,0.05214703,210.3,18.6,-9.3,42.33235,-2.9883723,0,1,0,0,3.673762,3.0702677,FALSE,0
34309,-0.00390625,-0.022460938,-1.0341797,-0.053211257,2.031606,0.05214703,210.3,18.6,-9.3,42.33235,-2.9883723,0,1,0,0,3.673762,3.0702677,FALSE,0
34309,-0.00390625,-0.022460938,-1.0341797,-0.053211257,2.031606,0.05214703,210.3,18.6,-9.3,42.33235,-2.9883723,0,1,0,0,3.673762,3.0702677,FALSE,0
34309,-0.00390625,-0.022460938,-1.0341797,-0.053211257,2.031606,0.05214703,210.3,18.6,-9.3,42.33235,-2.9883723,0,1,0,0,3.673762,3.0702677,FALSE,0
34312,-0.00390625,-0.022460938,-1.0341797,-0.053211257,2.031606,0.05214703,210.3,18.6,-9.3,42.33235,-2.9883723,0,1,0,0,3.673762,3.0702677,FALSE,0
34312,-0.00390625,-0.022460938,-1.0341797,-0.053211257,2.031606,0.05214703,210.3,18.6,-9.3,42.33235,-2.9883723,0,1,0,0,3.673762,3.0702677,FALSE,0
34312,-0.00390625,-0.022460938,-1.0341797,-0.053211257,2.031606,0.05214703,210.3,18.6,-9.3,42.33235,-2.9883723,0,1,0,0,3.673762,3.0702677,FALSE,0
34312,-0.00390625,-0.022460938,-1.0341797,-0.053211257,2.031606,0.05214703,210.3,18.6,-9.3,42.33235,-2.9883723,0,1,0,0,3.673762,3.0702677,FALSE,0
34312,-0.00390625,-0.022460938,-1.0341797,-0.053211257,2.031606,0.05214703,210.3,18.6,-9.3,42.33235,-2.9883723,0,1,0,0,3.673762,3.0702677,FALSE,0
34312,-0.00390625,-0.022460938,-1.0341797,-0.053211257,2.031606,0.05214703,210.3,18.6,-9.3,42.33235,-2.9883723,0,1,0,0,3.673762,3.0702677,FALSE,0
34312,-0.00390625,-0.022460938,-1.0341797,-0.053211257,2.031606,0.05214703,210.3,18.6,-9.3,42.33235,-2.9883723,0,1,0,0,3.673762,3.0702677,FALSE,0
34312,-0.00390625,-0.022460938,-1.0341797,-0.053211257,2.031606,0.05214703,210.3,18.6,-9.3,42.33235,-2.9883723,0,1,0,0,3.673762,3.0702677,FALSE,0
34312,-0.00390625,-0.022460938,-1.0341797,-0.053211257,2.031606,0.05214703,210.3,18.6,-9.3,42.33235,-2.9883723,0,1,0,0,3.673762,3.0702677,FALSE,0
34312,-0.00390625,-0.022460938,-1.0341797,-0.053211257,2.031606,0.05214703,210.3,18.6,-9.3,42.33235,-2.9883723,0,1,0,0,3.673762,3.0702677,FALSE,0
34312,-0.00390625,-0.022460938,-1.0341797,-0.053211257,2.031606,0.05214703,210.3,18.6,-9.3,42.33235,-2.9883723,0,1,0,0,3.673762,3.0702677,FALSE,0
34312,-0.005859375,-0.022460938,-1.0356445,-0.050018582,2.031606,0.05108281,210.00002,17.7,-10.200001,42.33235,-2.9883723,0,1,0,0,3.673762,3.0585184,FALSE,0
34356,-0.005859375,-0.022460938,-1.0356445,-0.050018582,2.031606,0.05108281,210.00002,17.7,-10.200001,42.33235,-2.9883723,0,1,0,0,3.673762,3.0585184,FALSE,0
34356,-0.005859375,-0.022460938,-1.0356445,-0.050018582,2.031606,0.05108281,210.00002,17.7,-10.200001,42.33235,-2.9883723,0,1,0,0,3.673762,3.0585184,FALSE,0
34356,-0.005859375,-0.022460938,-1.0356445,-0.050018582,2.031606,0.05108281,210.00002,17.7,-10.200001,42.33235,-2.9883723,0,1,0,0,3.673762,3.0585184,FALSE,0
34356,-0.005859375,-0.022460938,-1.0356445,-0.050018582,2.031606,0.05108281,210.00002,17.7,-10.200001,42.33235,-2.9883723,0,1,0,0,3.673762,3.0585184,FALSE,0
34356,-0.005859375,-0.022460938,-1.0356445,-0.050018582,2.031606,0.05108281,210.00002,17.7,-10.200001,42.33235,-2.9883723,0,1,0,0,3.673762,3.0585184,FALSE,0
34356,-0.005859375,-0.022460938,-1.0356445,-0.050018582,2.031606,0.05108281,210.00002,17.7,-10.200001,42.33235,-2.9883723,0,1,0,0,3.673762,3.0585184,FALSE,0
34356,-0.005859375,-0.022460938,-1.0356445,-0.050018582,2.031606,0.05108281,210.00002,17.7,-10.200001,42.33235,-2.9883723,0,1,0,0,3.673762,3.0585184,FALSE,0
34356,-0.005859375,-0.022460938,-1.0356445,-0.050018582,2.031606,0.05108281,210.00002,17.7,-10.200001,42.33235,-2.9883723,0,1,0,0,3.673762,3.0585184,FALSE,0
34356,-0.005859375,-0.022460938,-1.0356445,-0.050018582,2.031606,0.05108281,210.00002,17.7,-10.200001,42.33235,-2.9883723,0,1,0,0,3.673762,3.0585184,FALSE,0
34356,-0.005859375,-0.022460938,-1.0356445,-0.050018582,2.031606,0.05108281,210.00002,17.7,-10.200001,42.33235,-2.9883723,0,1,0,0,3.673762,3.0585184,FALSE,0
34356,-0.005859375,-0.022460938,-1.0356445,-0.050018582,2.031606,0.05108281,210.00002,17.7,-10.200001,42.33235,-2.9883723,0,1,0,0,3.673762,3.0585184,FALSE,0
34356,-0.005859375,-0.022460938,-1.0356445,-0.050018582,2.031606,0.05108281,210.00002,17.7,-10.200001,42.33235,-2.9883723,0,1,0,0,3.673762,3.0585184,FALSE,0
34356,-0.005859375,-0.022460938,-1.0356445,-0.050018582,2.031606,0.05108281,210.00002,17.7,-10.200001,42.33235,-2.9883723,0,1,0,0,3.673762,3.0585184,FALSE,0
34356,-0.005859375,-0.022460938,-1.0356445,-0.050018582,2.031606,0.05108281,210.00002,17.7,-10.200001,42.33235,-2.9883723,0,1,0,0,3.673762,3.0585184,FALSE,0
34356,-0.005859375,-0.022460938,-1.0356445,-0.050018582,2.031606,0.05108281,210.00002,17.7,-10.200001,42.33235,-2.9883723,0,1,0,0,3.673762,3.0585184,FALSE,0
34356,-0.005859375,-0.022460938,-1.0356445,-0.050018582,2.031606,0.05108281,210.00002,17.7,-10.200001,42.33235,-2.9883723,0,1,0,0,3.673762,3.0585184,FALSE,0
34356,-0.005859375,-0.022460938,-1.0356445,-0.050018582,2.031606,0.05108281,210.00002,17.7,-10.200001,42.33235,-2.9883723,0,1,0,0,3.673762,3.0585184,FALSE,0
34356,-0.005859375,-0.022460938,-1.0356445,-0.050018582,2.031606,0.05108281,210.00002,17.7,-10.200001,42.33235,-2.9883723,0,1,0,0,3.673762,3.0585184,FALSE,0
34356,-0.005859375,-0.022460938,-1.0356445,-0.050018582,2.031606,0.05108281,210.00002,17.7,-10.200001,42.33235,-2.9883723,0,1,0,0,3.673762,3.0585184,FALSE,0
34356,-0.005859375,-0.022460938,-1.0356445,-0.050018582,2.031606,0.05108281,210.00002,17.7,-10.200001,42.33235,-2.9883723,0,1,0,0,3.673762,3.0585184,FALSE,0
34356,-0.005859375,-0.022460938,-1.0356445,-0.050018582,2.031606,0.05108281,210.00002,17.7,-10.200001,42.33235,-2.9883723,0,1,0,0,3.673762,3.0585184,FALSE,0
34356,-0.005859375,-0.022460938,-1.0356445,-0.050018582,2.031606,0.05108281,210.00002,17.7,-10.200001,42.33235,-2.9883723,0,1,0,0,3.673762,3.0585184,FALSE,0
34356,-0.005859375,-0.022460938,-1.0356445,-0.050018582,2.031606,0.05108281,210.00002,17.7,-10.200001,42.33235,-2.9883723,0,1,0,0,3.673762,3.0585184,FALSE,0
34356,-0.005859375,-0.022460938,-1.0356445,-0.050018582,2.031606,0.05108281,210.00002,17.7,-10.200001,42.33235,-2.9883723,0,1,0,0,3.673762,3.0585184,FALSE,0
34356,-0.005859375,-0.022460938,-1.0356445,-0.050018582,2.031606,0.05108281,210.00002,17.7,-10.200001,42.33235,-2.9883723,0,1,0,0,3.673762,3.0585184,FALSE,0
34356,-0.005859375,-0.022460938,-1.0356445,-0.050018582,2.031606,0.05108281,210.00002,17.7,-10.200001,42.33235,-2.9883723,0,1,0,0,3.673762,3.0585184,FALSE,0
34356,-0.005859375,-0.022460938,-1.0356445,-0.050018582,2.031606,0.05108281,210.00002,17.7,-10.200001,42.33235,-2.9883723,0,1,0,0,3.673762,3.0585184,FALSE,0
34356,-0.005859375,-0.022460938,-1.0356445,-0.050018582,2.031606,0.05108281,210.00002,17.7,-10.200001,42.33235,-2.9883723,0,1,0,0,3.673762,3.0585184,FALSE,0
34357,-0.005859375,-0.022460938,-1.0356445,-0.050018582,2.031606,0.05108281,210.00002,17.7,-10.200001,42.33235,-2.9883723,0,1,0,0,3.673762,3.0585184,FALSE,0
34357,-0.005859375,-0.022460938,-1.0356445,-0.050018582,2.031606,0.05108281,210.00002,17.7,-10.200001,42.33235,-2.9883723,0,1,0,0,3.673762,3.0585184,FALSE,0
34357,-0.005859375,-0.022460938,-1.0356445,-0.050018582,2.031606,0.05108281,210.00002,17.7,-10.200001,42.33235,-2.9883723,0,1,0,0,3.673762,3.0585184,FALSE,0
34357,-0.005859375,-0.022460938,-1.0356445,-0.050018582,2.031606,0.05108281,210.00002,17.7,-10.200001,42.33235,-2.9883723,0,1,0,0,3.673762,3.0585184,FALSE,0
34357,-0.005859375,-0.022460938,-1.0356445,-0.050018582,2.031606,0.05108281,210.00002,17.7,-10.200001,42.33235,-2.9883723,0,1,0,0,3.673762,3.0585184,FALSE,0
34357,-0.005859375,-0.022460938,-1.0356445,-0.050018582,2.031606,0.05108281,210.00002,17.7,-10.200001,42.33235,-2.9883723,0,1,0,0,3.673762,3.0585184,FALSE,0
34357,-0.005859375,-0.022460938,-1.0356445,-0.050018582,2.031606,0.05108281,210.00002,17.7,-10.200001,42.33235,-2.9883723,0,1,0,0,3.673762,3.0585184,FALSE,0
34357,-0.005859375,-0.022460938,-1.0356445,-0.050018582,2.031606,0.05108281,210.00002,17.7,-10.200001,42.33235,-2.9883723,0,1,0,0,3.673762,3.0585184,FALSE,0
34357,-0.005859375,-0.022460938,-1.0356445,-0.050018582,2.031606,0.05108281,210.00002,17.7,-10.200001,42.33235,-2.9883723,0,1,0,0,3.673762,3.0585184,FALSE,0
34357,-0.005859375,-0.022460938,-1.0356445,-0.050018582,2.031606,0.05108281,210.00002,17.7,-10.200001,42.33235,-2.9883723,0,1,0,0,3.673762,3.0585184,FALSE,0
34357,-0.005859375,-0.022460938,-1.0356445,-0.050018582,2.031606,0.05108281,210.00002,17.7,-10.200001,42.33235,-2.9883723,0,1,0,0,3.673762,3.0585184,FALSE,0
34357,-0.005859375,-0.022460938,-1.0356445,-0.050018582,2.031606,0.05108281,210.00002,17.7,-10.200001,42.33235,-2.9883723,0,1,0,0,3.673762,3.0585184,FALSE,0
34357,-0.005859375,-0.022460938,-1.0356445,-0.050018582,2.031606,0.05108281,210.00002,17.7,-10.200001,42.33235,-2.9883723,0,1,0,0,3.673762,3.0585184,FALSE,0
34357,-0.005859375,-0.022460938,-1.0356445,-0.050018582,2.031606,0.05108281,210.00002,17.7,-10.200001,42.33235,-2.9883723,0,1,0,0,3.673762,3.0585184,FALSE,0
34357,-0.001953125,-0.021484375,-1.0332031,-0.050018582,2.031606,0.05108281,208.20001,18,-12,42.341175,-2.9883723,0,1,0,0,3.673762,3.0702677,FALSE,0
34411,-0.001953125,-0.021484375,-1.0332031,-0.050018582,2.031606,0.05108281,208.20001,18,-12,42.341175,-2.9883723,0,1,0,0,3.673762,3.0702677,FALSE,0
34411,-0.001953125,-0.021484375,-1.0332031,-0.050018582,2.031606,0.05108281,208.20001,18,-12,42.341175,-2.9883723,0,1,0,0,3.673762,3.0702677,FALSE,0
34411,-0.001953125,-0.021484375,-1.0332031,-0.050018582,2.031606,0.05108281,208.20001,18,-12,42.341175,-2.9883723,0,1,0,0,3.673762,3.0702677,FALSE,0
34412,-0.001953125,-0.021484375,-1.0332031,-0.050018582,2.031606,0.05108281,208.20001,18,-12,42.341175,-2.9883723,0,1,0,0,3.673762,3.0702677,FALSE,0
34412,-0.001953125,-0.021484375,-1.0332031,-0.050018582,2.031606,0.05108281,208.20001,18,-12,42.341175,-2.9883723,0,1,0,0,3.673762,3.0702677,FALSE,0
34412,-0.001953125,-0.021484375,-1.0332031,-0.050018582,2.031606,0.05108281,208.20001,18,-12,42.341175,-2.9883723,0,1,0,0,3.673762,3.0702677,FALSE,0
34412,-0.001953125,-0.021484375,-1.0332031,-0.050018582,2.031606,0.05108281,208.20001,18,-12,42.341175,-2.9883723,0,1,0,0,3.673762,3.0702677,FALSE,0
34412,-0.001953125,-0.021484375,-1.0332031,-0.050018582,2.031606,0.05108281,208.20001,18,-12,42.341175,-2.9883723,0,1,0,0,3.673762,3.0702677,FALSE,0
34412,-0.001953125,-0.021484375,-1.0332031,-0.050018582,2.031606,0.05108281,208.20001,18,-12,42.341175,-2.9883723,0,1,0,0,3.673762,3.0702677,FALSE,0
34412,-0.001953125,-0.021484375,-1.0332031,-0.050018582,2.031606,0.05108281,208.20001,18,-12,42.341175,-2.9883723,0,1,0,0,3.673762,3.0702677,FALSE,0
34412,-0.001953125,-0.021484375,-1.0332031,-0.050018582,2.031606,0.05108281,208.20001,18,-12,42.341175,-2.9883723,0,1,0,0,3.673762,3.0702677,FALSE,0
34412,-0.001953125,-0.021484375,-1.0332031,-0.050018582,2.031606,0.05108281,208.20001,18,-12,42.341175,-2.9883723,0,1,0,0,3.673762,3.0702677,FALSE,0
34413,-0.001953125,-0.021484375,-1.0332031,-0.050018582,2.031606,0.05108281,208.20001,18,-12,42.341175,-2.9883723,0,1,0,0,3.673762,3.0702677,FALSE,0
34413,-0.001953125,-0.021484375,-1.0332031,-0.050018582,2.031606,0.05108281,208.20001,18,-12,42.341175,-2.9883723,0,1,0,0,3.673762,3.0702677,FALSE,0
34413,-0.001953125,-0.021484375,-1.0332031,-0.050018582,2.031606,0.05108281,208.20001,18,-12,42.341175,-2.9883723,0,1,0,0,3.673762,3.0702677,FALSE,0
34413,-0.001953125,-0.021484375,-1.0332031,-0.050018582,2.031606,0.05108281,208.20001,18,-12,42.341175,-2.9883723,0,1,0,0,3.673762,3.0702677,FALSE,0
34413,-0.001953125,-0.021484375,-1.0332031,-0.050018582,2.031606,0.05108281,208.20001,18,-12,42.341175,-2.9883723,0,1,0,0,3.673762,3.0702677,FALSE,0
34413,-0.001953125,-0.021484375,-1.0332031,-0.050018582,2.031606,0.05108281,208.20001,18,-12,42.341175,-2.9883723,0,1,0,0,3.673762,3.0702677,FALSE,0
34413,-0.001953125,-0.021484375,-1.0332031,-0.050018582,2.031606,0.05108281,208.20001,18,-12,42.341175,-2.9883723,0,1,0,0,3.673762,3.0702677,FALSE,0
34413,-0.001953125,-0.021484375,-1.0332031,-0.050018582,2.031606,0.05108281,208.20001,18,-12,42.341175,-2.9883723,0,1,0,0,3.673762,3.0702677,FALSE,0
34413,-0.001953125,-0.021484375,-1.0332031,-0.050018582,2.031606,0.05108281,208.20001,18,-12,42.341175,-2.9883723,0,1,0,0,3.673762,3.0702677,FALSE,0
34413,-0.001953125,-0.021484375,-1.0332031,-0.050018582,2.031606,0.05108281,208.20001,18,-12,42.341175,-2.9883723,0,1,0,0,3.673762,3.0702677,FALSE,0
34413,-0.001953125,-0.021484375,-1.0332031,-0.050018582,2.031606,0.05108281,208.20001,18,-12,42.341175,-2.9883723,0,1,0,0,3.673762,3.0702677,FALSE,0
34413,-0.001953125,-0.021484375,-1.0332031,-0.050018582,2.031606,0.05108281,208.20001,18,-12,42.341175,-2.9883723,0,1,0,0,3.673762,3.0702677,FALSE,0
34413,-0.001953125,-0.021484375,-1.0332031,-0.050018582,2.031606,0.05108281,208.20001,18,-12,42.341175,-2.9883723,0,1,0,0,3.673762,3.0702677,FALSE,0
34413,-0.001953125,-0.021484375,-1.0332031,-0.050018582,2.031606,0.05108281,208.20001,18,-12,42.341175,-2.9883723,0,1,0,0,3.673762,3.0702677,FALSE,0
34413,-0.001953125,-0.021484375,-1.0332031,-0.050018582,2.031606,0.05108281,208.20001,18,-12,42.341175,-2.9883723,0,1,0,0,3.673762,3.0702677,FALSE,0
34413,-0.001953125,-0.021484375,-1.0332031,-0.050018582,2.031606,0.05108281,208.20001,18,-12,42.341175,-2.9883723,0,1,0,0,3.673762,3.0702677,FALSE,0
34413,-0.001953125,-0.021484375,-1.0332031,-0.050018582,2.031606,0.05108281,208.20001,18,-12,42.341175,-2.9883723,0,1,0,0,3.673762,3.0702677,FALSE,0
34414,-0.001953125,-0.021484375,-1.0332031,-0.050018582,2.031606,0.05108281,208.20001,18,-12,42.341175,-2.9883723,0,1,0,0,3.673762,3.0702677,FALSE,0
34414,-0.001953125,-0.021484375,-1.0332031,-0.050018582,2.031606,0.05108281,208.20001,18,-12,42.341175,-2.9883723,0,1,0,0,3.673762,3.0702677,FALSE,0
34414,-0.001953125,-0.021484375,-1.0332031,-0.050018582,2.031606,0.05108281,208.20001,18,-12,42.341175,-2.9883723,0,1,0,0,3.673762,3.0702677,FALSE,0
34414,-0.001953125,-0.021484375,-1.0332031,-0.050018582,2.031606,0.05108281,208.20001,18,-12,42.341175,-2.9883723,0,1,0,0,3.673762,3.0702677,FALSE,0
34414,-0.001953125,-0.021484375,-1.0332031,-0.050018582,2.031606,0.05108281,208.20001,18,-12,42.341175,-2.9883723,0,1,0,0,3.673762,3.0702677,FALSE,0
34414,-0.001953125,-0.021484375,-1.0332031,-0.050018582,2.031606,0.05108281,208.20001,18,-12,42.341175,-2.9883723,0,1,0,0,3.673762,3.0702677,FALSE,0
34414,-0.001953125,-0.021484375,-1.0332031,-0.050018582,2.031606,0.05108281,208.20001,18,-12,42.341175,-2.9883723,0,1,0,0,3.673762,3.0702677,FALSE,0
34414,-0.001953125,-0.021484375,-1.0332031,-0.050018582,2.031606,0.05108281,208.20001,18,-12,42.341175,-2.9883723,0,1,0,0,3.673762,3.0702677,FALSE,0
34414,-0.001953125,-0.021484375,-1.0332031,-0.050018582,2.031606,0.05108281,208.20001,18,-12,42.341175,-2.9883723,0,1,0,0,3.673762,3.0702677,FALSE,0
34414,-0.001953125,-0.021484375,-1.0332031,-0.050018582,2.031606,0.05108281,208.20001,18,-12,42.341175,-2.9883723,0,1,0,0,3.673762,3.0702677,FALSE,0
34414,-0.001953125,-0.021484375,-1.0332031,-0.050018582,2.031606,0.05108281,208.20001,18,-12,42.341175,-2.9883723,0,1,0,0,3.673762,3.0702677,FALSE,0
34414,-0.001953125,-0.021484375,-1.0332031,-0.050018582,2.031606,0.05108281,208.20001,18,-12,42.341175,-2.9883723,0,1,0,0,3.673762,3.0702677,FALSE,0
34414,-0.001953125,-0.021484375,-1.0332031,-0.050018582,2.031606,0.05108281,208.20001,18,-12,42.341175,-2.9883723,0,1,0,0,3.673762,3.0702677,FALSE,0
34414,-0.005371094,-0.022949219,-1.0297852,-0.048954356,2.031606,0.050018582,212.70001,18.300001,-9,42.35882,-2.9883723,0,1,0,0,3.673762,3.0702677,FALSE,0
34462,-0.005371094,-0.022949219,-1.0297852,-0.048954356,2.031606,0.050018582,212.70001,18.300001,-9,42.35882,-2.9883723,0,1,0,0,3.673762,3.0702677,FALSE,0
34462,-0.005371094,-0.022949219,-1.0297852,-0.048954356,2.031606,0.050018582,212.70001,18.300001,-9,42.35882,-2.9883723,0,1,0,0,3.673762,3.0702677,FALSE,0
34462,-0.005371094,-0.022949219,-1.0297852,-0.048954356,2.031606,0.050018582,212.70001,18.300001,-9,42.35882,-2.9883723,0,1,0,0,3.673762,3.0702677,FALSE,0
34462,-0.005371094,-0.022949219,-1.0297852,-0.048954356,2.031606,0.050018582,212.70001,18.300001,-9,42.35882,-2.9883723,0,1,0,0,3.673762,3.0702677,FALSE,0
34462,-0.005371094,-0.022949219,-1.0297852,-0.048954356,2.031606,0.050018582,212.70001,18.300001,-9,42.35882,-2.9883723,0,1,0,0,3.673762,3.0702677,FALSE,0
34462,-0.005371094,-0.022949219,-1.0297852,-0.048954356,2.031606,0.050018582,212.70001,18.300001,-9,42.35882,-2.9883723,0,1,0,0,3.673762,3.0702677,FALSE,0
34462,-0.005371094,-0.022949219,-1.0297852,-0.048954356,2.031606,0.050018582,212.70001,18.300001,-9,42.35882,-2.9883723,0,1,0,0,3.673762,3.0702677,FALSE,0
34462,-0.005371094,-0.022949219,-1.0297852,-0.048954356,2.031606,0.050018582,212.70001,18.300001,-9,42.35882,-2.9883723,0,1,0,0,3.673762,3.0702677,FALSE,0
34462,-0.005371094,-0.022949219,-1.0297852,-0.048954356,2.031606,0.050018582,212.70001,18.300001,-9,42.35882,-2.9883723,0,1,0,0,3.673762,3.0702677,FALSE,0
34462,-0.005371094,-0.022949219,-1.0297852,-0.048954356,2.031606,0.050018582,212.70001,18.300001,-9,42.35882,-2.9883723,0,1,0,0,3.673762,3.0702677,FALSE,0
34462,-0.005371094,-0.022949219,-1.0297852,-0.048954356,2.031606,0.050018582,212.70001,18.300001,-9,42.35882,-2.9883723,0,1,0,0,3.673762,3.0702677,FALSE,0
34463,-0.005371094,-0.022949219,-1.0297852,-0.048954356,2.031606,0.050018582,212.70001,18.300001,-9,42.35882,-2.9883723,0,1,0,0,3.673762,3.0702677,FALSE,0
34463,-0.005371094,-0.022949219,-1.0297852,-0.048954356,2.031606,0.050018582,212.70001,18.300001,-9,42.35882,-2.9883723,0,1,0,0,3.673762,3.0702677,FALSE,0
34463,-0.005371094,-0.022949219,-1.0297852,-0.048954356,2.031606,0.050018582,212.70001,18.300001,-9,42.35882,-2.9883723,0,1,0,0,3.673762,3.0702677,FALSE,0
34463,-0.005371094,-0.022949219,-1.0297852,-0.048954356,2.031606,0.050018582,212.70001,18.300001,-9,42.35882,-2.9883723,0,1,0,0,3.673762,3.0702677,FALSE,0
34463,-0.005371094,-0.022949219,-1.0297852,-0.048954356,2.031606,0.050018582,212.70001,18.300001,-9,42.35882,-2.9883723,0,1,0,0,3.673762,3.0702677,FALSE,0
34463,-0.005371094,-0.022949219,-1.0297852,-0.048954356,2.031606,0.050018582,212.70001,18.300001,-9,42.35882,-2.9883723,0,1,0,0,3.673762,3.0702677,FALSE,0
34463,-0.005371094,-0.022949219,-1.0297852,-0.048954356,2.031606,0.050018582,212.70001,18.300001,-9,42.35882,-2.9883723,0,1,0,0,3.673762,3.0702677,FALSE,0
34463,-0.005371094,-0.022949219,-1.0297852,-0.048954356,2.031606,0.050018582,212.70001,18.300001,-9,42.35882,-2.9883723,0,1,0,0,3.673762,3.0702677,FALSE,0
34463,-0.005371094,-0.022949219,-1.0297852,-0.048954356,2.031606,0.050018582,212.70001,18.300001,-9,42.35882,-2.9883723,0,1,0,0,3.673762,3.0702677,FALSE,0
34463,-0.005371094,-0.022949219,-1.0297852,-0.048954356,2.031606,0.050018582,212.70001,18.300001,-9,42.35882,-2.9883723,0,1,0,0,3.673762,3.0702677,FALSE,0
34463,-0.005371094,-0.022949219,-1.0297852,-0.048954356,2.031606,0.050018582,212.70001,18.300001,-9,42.35882,-2.9883723,0,1,0,0,3.673762,3.0702677,FALSE,0
34463,-0.005371094,-0.022949219,-1.0297852,-0.048954356,2.031606,0.050018582,212.70001,18.300001,-9,42.35882,-2.9883723,0,1,0,0,3.673762,3.0702677,FALSE,0
34463,-0.005371094,-0.022949219,-1.0297852,-0.048954356,2.031606,0.050018582,212.70001,18.300001,-9,42.35882,-2.9883723,0,1,0,0,3.673762,3.0702677,FALSE,0
34463,-0.005371094,-0.022949219,-1.0297852,-0.048954356,2.031606,0.050018582,212.70001,18.300001,-9,42.35882,-2.9883723,0,1,0,0,3.673762,3.0702677,FALSE,0
34463,-0.005371094,-0.022949219,-1.0297852,-0.048954356,2.031606,0.050018582,212.70001,18.300001,-9,42.35882,-2.9883723,0,1,0,0,3.673762,3.0702677,FALSE,0
34463,-0.005371094,-0.022949219,-1.0297852,-0.048954356,2.031606,0.050018582,212.70001,18.300001,-9,42.35882,-2.9883723,0,1,0,0,3.673762,3.0702677,FALSE,0
34463,-0.005371094,-0.022949219,-1.0297852,-0.048954356,2.031606,0.050018582,212.70001,18.300001,-9,42.35882,-2.9883723,0,1,0,0,3.673762,3.0702677,FALSE,0
34463,-0.005371094,-0.022949219,-1.0297852,-0.048954356,2.031606,0.050018582,212.70001,18.300001,-9,42.35882,-2.9883723,0,1,0,0,3.673762,3.0702677,FALSE,0
34463,-0.005371094,-0.022949219,-1.0297852,-0.048954356,2.031606,0.050018582,212.70001,18.300001,-9,42.35882,-2.9883723,0,1,0,0,3.673762,3.0702677,FALSE,0
34463,-0.005371094,-0.022949219,-1.0297852,-0.048954356,2.031606,0.050018582,212.70001,18.300001,-9,42.35882,-2.9883723,0,1,0,0,3.673762,3.0702677,FALSE,0
34464,-0.005371094,-0.022949219,-1.0297852,-0.048954356,2.031606,0.050018582,212.70001,18.300001,-9,42.35882,-2.9883723,0,1,0,0,3.673762,3.0702677,FALSE,0
34464,-0.005371094,-0.022949219,-1.0297852,-0.048954356,2.031606,0.050018582,212.70001,18.300001,-9,42.35882,-2.9883723,0,1,0,0,3.673762,3.0702677,FALSE,0
34464,-0.005371094,-0.022949219,-1.0297852,-0.048954356,2.031606,0.050018582,212.70001,18.300001,-9,42.35882,-2.9883723,0,1,0,0,3.673762,3.0702677,FALSE,0
34464,-0.005371094,-0.022949219,-1.0297852,-0.048954356,2.031606,0.050018582,212.70001,18.300001,-9,42.35882,-2.9883723,0,1,0,0,3.673762,3.0702677,FALSE,0
34464,-0.005371094,-0.022949219,-1.0297852,-0.048954356,2.031606,0.050018582,212.70001,18.300001,-9,42.35882,-2.9883723,0,1,0,0,3.673762,3.0702677,FALSE,0
34464,-0.005371094,-0.022949219,-1.0297852,-0.048954356,2.031606,0.050018582,212.70001,18.300001,-9,42.35882,-2.9883723,0,1,0,0,3.673762,3.0702677,FALSE,0
34464,-0.005371094,-0.022949219,-1.0297852,-0.048954356,2.031606,0.050018582,212.70001,18.300001,-9,42.35882,-2.9883723,0,1,0,0,3.673762,3.0702677,FALSE,0
34464,-0.005371094,-0.022949219,-1.0297852,-0.048954356,2.031606,0.050018582,212.70001,18.300001,-9,42.35882,-2.9883723,0,1,0,0,3.673762,3.0702677,FALSE,0
34464,-0.005371094,-0.022949219,-1.0297852,-0.048954356,2.031606,0.050018582,212.70001,18.300001,-9,42.35882,-2.9883723,0,1,0,0,3.673762,3.0702677,FALSE,0
34464,-0.005371094,-0.022949219,-1.0297852,-0.048954356,2.031606,0.050018582,212.70001,18.300001,-9,42.35882,-2.9883723,0,1,0,0,3.673762,3.0702677,FALSE,0
34464,-0.005371094,-0.022949219,-1.0297852,-0.048954356,2.031606,0.050018582,212.70001,18.300001,-9,42.35882,-2.9883723,0,1,0,0,3.673762,3.0702677,FALSE,0
34464,-0.00390625,-0.021484375,-1.03125,-0.048954356,2.031606,0.05108281,213.3,20.1,-11.400001,42.338234,-2.9883723,0,1,0,0,3.6562142,3.0585184,FALSE,0
34509,-0.00390625,-0.021484375,-1.03125,-0.048954356,2.031606,0.05108281,213.3,20.1,-11.400001,42.338234,-2.9883723,0,1,0,0,3.6562142,3.0585184,FALSE,0
34509,-0.00390625,-0.021484375,-1.03125,-0.048954356,2.031606,0.05108281,213.3,20.1,-11.400001,42.338234,-2.9883723,0,1,0,0,3.6562142,3.0585184,FALSE,0
34510,-0.00390625,-0.021484375,-1.03125,-0.048954356,2.031606,0.05108281,213.3,20.1,-11.400001,42.338234,-2.9883723,0,1,0,0,3.6562142,3.0585184,FALSE,0
34510,-0.00390625,-0.021484375,-1.03125,-0.048954356,2.031606,0.05108281,213.3,20.1,-11.400001,42.338234,-2.9883723,0,1,0,0,3.6562142,3.0585184,FALSE,0
34510,-0.00390625,-0.021484375,-1.03125,-0.048954356,2.031606,0.05108281,213.3,20.1,-11.400001,42.338234,-2.9883723,0,1,0,0,3.6562142,3.0585184,FALSE,0
34510,-0.00390625,-0.021484375,-1.03125,-0.048954356,2.031606,0.05108281,213.3,20.1,-11.400001,42.338234,-2.9883723,0,1,0,0,3.6562142,3.0585184,FALSE,0
34510,-0.00390625,-0.021484375,-1.03125,-0.048954356,2.031606,0.05108281,213.3,20.1,-11.400001,42.338234,-2.9883723,0,1,0,0,3.6562142,3.0585184,FALSE,0
34510,-0.00390625,-0.021484375,-1.03125,-0.048954356,2.031606,0.05108281,213.3,20.1,-11.400001,42.338234,-2.9883723,0,1,0,0,3.6562142,3.0585184,FALSE,0
34510,-0.00390625,-0.021484375,-1.03125,-0.048954356,2.031606,0.05108281,213.3,20.1,-11.400001,42.338234,-2.9883723,0,1,0,0,3.6562142,3.0585184,FALSE,0
34510,-0.00390625,-0.021484375,-1.03125,-0.048954356,2.031606,0.05108281,213.3,20.1,-11.400001,42.338234,-2.9883723,0,1,0,0,3.6562142,3.0585184,FALSE,0
34510,-0.00390625,-0.021484375,-1.03125,-0.048954356,2.031606,0.05108281,213.3,20.1,-11.400001,42.338234,-2.9883723,0,1,0,0,3.6562142,3.0585184,FALSE,0
34510,-0.00390625,-0.021484375,-1.03125,-0.048954356,2.031606,0.05108281,213.3,20.1,-11.400001,42.338234,-2.9883723,0,1,0,0,3.6562142,3.0585184,FALSE,0
34510,-0.00390625,-0.021484375,-1.03125,-0.048954356,2.031606,0.05108281,213.3,20.1,-11.400001,42.338234,-2.9883723,0,1,0,0,3.6562142,3.0585184,FALSE,0
34510,-0.00390625,-0.021484375,-1.03125,-0.048954356,2.031606,0.05108281,213.3,20.1,-11.400001,42.338234,-2.9883723,0,1,0,0,3.6562142,3.0585184,FALSE,0
34510,-0.00390625,-0.021484375,-1.03125,-0.048954356,2.031606,0.05108281,213.3,20.1,-11.400001,42.338234,-2.9883723,0,1,0,0,3.6562142,3.0585184,FALSE,0
34510,-0.00390625,-0.021484375,-1.03125,-0.048954356,2.031606,0.05108281,213.3,20.1,-11.400001,42.338234,-2.9883723,0,1,0,0,3.6562142,3.0585184,FALSE,0
34510,-0.00390625,-0.021484375,-1.03125,-0.048954356,2.031606,0.05108281,213.3,20.1,-11.400001,42.338234,-2.9883723,0,1,0,0,3.6562142,3.0585184,FALSE,0
34510,-0.00390625,-0.021484375,-1.03125,-0.048954356,2.031606,0.05108281,213.3,20.1,-11.400001,42.338234,-2.9883723,0,1,0,0,3.6562142,3.0585184,FALSE,0
34510,-0.00390625,-0.021484375,-1.03125,-0.048954356,2.031606,0.05108281,213.3,20.1,-11.400001,42.338234,-2.9883723,0,1,0,0,3.6562142,3.0585184,FALSE,0
34510,-0.00390625,-0.021484375,-1.03125,-0.048954356,2.031606,0.05108281,213.3,20.1,-11.400001,42.338234,-2.9883723,0,1,0,0,3.6562142,3.0585184,FALSE,0
34510,-0.00390625,-0.021484375,-1.03125,-0.048954356,2.031606,0.05108281,213.3,20.1,-11.400001,42.338234,-2.9883723,0,1,0,0,3.6562142,3.0585184,FALSE,0
34510,-0.00390625,-0.021484375,-1.03125,-0.048954356,2.031606,0.05108281,213.3,20.1,-11.400001,42.338234,-2.9883723,0,1,0,0,3.6562142,3.0585184,FALSE,0
34510,-0.00390625,-0.021484375,-1.03125,-0.048954356,2.031606,0.05108281,213.3,20.1,-11.400001,42.338234,-2.9883723,0,1,0,0,3.6562142,3.0585184,FALSE,0
34510,-0.00390625,-0.021484375,-1.03125,-0.048954356,2.031606,0.05108281,213.3,20.1,-11.400001,42.338234,-2.9883723,0,1,0,0,3.6562142,3.0585184,FALSE,0
34510,-0.00390625,-0.021484375,-1.03125,-0.048954356,2.031606,0.05108281,213.3,20.1,-11.400001,42.338234,-2.9883723,0,1,0,0,3.6562142,3.0585184,FALSE,0
34510,-0.00390625,-0.021484375,-1.03125,-0.048954356,2.031606,0.05108281,213.3,20.1,-11.400001,42.338234,-2.9883723,0,1,0,0,3.6562142,3.0585184,FALSE,0
34510,-0.00390625,-0.021484375,-1.03125,-0.048954356,2.031606,0.05108281,213.3,20.1,-11.400001,42.338234,-2.9883723,0,1,0,0,3.6562142,3.0585184,FALSE,0
34510,-0.00390625,-0.021484375,-1.03125,-0.048954356,2.031606,0.05108281,213.3,20.1,-11.400001,42.338234,-2.9883723,0,1,0,0,3.6562142,3.0585184,FALSE,0
34510,-0.00390625,-0.021484375,-1.03125,-0.048954356,2.031606,0.05108281,213.3,20.1,-11.400001,42.338234,-2.9883723,0,1,0,0,3.6562142,3.0585184,FALSE,0
34510,-0.00390625,-0.021484375,-1.03125,-0.048954356,2.031606,0.05108281,213.3,20.1,-11.400001,42.338234,-2.9883723,0,1,0,0,3.6562142,3.0585184,FALSE,0
34510,-0.00390625,-0.021484375,-1.03125,-0.048954356,2.031606,0.05108281,213.3,20.1,-11.400001,42.338234,-2.9883723,0,1,0,0,3.6562142,3.0585184,FALSE,0
34511,-0.00390625,-0.021484375,-1.03125,-0.048954356,2.031606,0.05108281,213.3,20.1,-11.400001,42.338234,-2.9883723,0,1,0,0,3.6562142,3.0585184,FALSE,0
34511,-0.00390625,-0.021484375,-1.03125,-0.048954356,2.031606,0.05108281,213.3,20.1,-11.400001,42.338234,-2.9883723,0,1,0,0,3.6562142,3.0585184,FALSE,0
34511,-0.00390625,-0.021484375,-1.03125,-0.048954356,2.031606,0.05108281,213.3,20.1,-11.400001,42.338234,-2.9883723,0,1,0,0,3.6562142,3.0585184,FALSE,0
34511,-0.00390625,-0.021484375,-1.03125,-0.048954356,2.031606,0.05108281,213.3,20.1,-11.400001,42.338234,-2.9883723,0,1,0,0,3.6562142,3.0585184,FALSE,0
34511,-0.00390625,-0.021484375,-1.03125,-0.048954356,2.031606,0.05108281,213.3,20.1,-11.400001,42.338234,-2.9883723,0,1,0,0,3.6562142,3.0585184,FALSE,0
34511,-0.00390625,-0.021484375,-1.03125,-0.048954356,2.031606,0.05108281,213.3,20.1,-11.400001,42.338234,-2.9883723,0,1,0,0,3.6562142,3.0585184,FALSE,0
34511,-0.00390625,-0.021484375,-1.03125,-0.048954356,2.031606,0.05108281,213.3,20.1,-11.400001,42.338234,-2.9883723,0,1,0,0,3.6562142,3.0585184,FALSE,0
34511,-0.00390625,-0.021484375,-1.03125,-0.048954356,2.031606,0.05108281,213.3,20.1,-11.400001,42.338234,-2.9883723,0,1,0,0,3.6562142,3.0585184,FALSE,0
34511,-0.00390625,-0.021484375,-1.03125,-0.048954356,2.031606,0.05108281,213.3,20.1,-11.400001,42.338234,-2.9883723,0,1,0,0,3.6562142,3.0585184,FALSE,0
34511,-0.00390625,-0.021484375,-1.03125,-0.048954356,2.031606,0.05108281,213.3,20.1,-11.400001,42.338234,-2.9883723,0,1,0,0,3.6562142,3.0585184,FALSE,0
34511,-0.00390625,-0.021484375,-1.03125,-0.048954356,2.031606,0.05108281,213.3,20.1,-11.400001,42.338234,-2.9883723,0,1,0,0,3.6562142,3.0585184,FALSE,0
34511,-0.00390625,-0.020507812,-1.0336914,-0.048954356,2.031606,0.05214703,209.70001,20.1,-10.5,42.311764,-2.9883723,0,1,0,0,3.673762,3.0702677,FALSE,0
34558,-0.00390625,-0.020507812,-1.0336914,-0.048954356,2.031606,0.05214703,209.70001,20.1,-10.5,42.311764,-2.9883723,0,1,0,0,3.673762,3.0702677,FALSE,0
34566,-0.00390625,-0.020507812,-1.0336914,-0.048954356,2.031606,0.05214703,209.70001,20.1,-10.5,42.311764,-2.9883723,0,1,0,0,3.673762,3.0702677,FALSE,0
34566,-0.00390625,-0.020507812,-1.0336914,-0.048954356,2.031606,0.05214703,209.70001,20.1,-10.5,42.311764,-2.9883723,0,1,0,0,3.673762,3.0702677,FALSE,0
34566,-0.00390625,-0.020507812,-1.0336914,-0.048954356,2.031606,0.05214703,209.70001,20.1,-10.5,42.311764,-2.9883723,0,1,0,0,3.673762,3.0702677,FALSE,0
34566,-0.00390625,-0.020507812,-1.0336914,-0.048954356,2.031606,0.05214703,209.70001,20.1,-10.5,42.311764,-2.9883723,0,1,0,0,3.673762,3.0702677,FALSE,0
34566,-0.00390625,-0.020507812,-1.0336914,-0.048954356,2.031606,0.05214703,209.70001,20.1,-10.5,42.311764,-2.9883723,0,1,0,0,3.673762,3.0702677,FALSE,0
34566,-0.00390625,-0.020507812,-1.0336914,-0.048954356,2.031606,0.05214703,209.70001,20.1,-10.5,42.311764,-2.9883723,0,1,0,0,3.673762,3.0702677,FALSE,0
34566,-0.00390625,-0.020507812,-1.0336914,-0.048954356,2.031606,0.05214703,209.70001,20.1,-10.5,42.311764,-2.9883723,0,1,0,0,3.673762,3.0702677,FALSE,0
34566,-0.00390625,-0.020507812,-1.0336914,-0.048954356,2.031606,0.05214703,209.70001,20.1,-10.5,42.311764,-2.9883723,0,1,0,0,3.673762,3.0702677,FALSE,0
34566,-0.00390625,-0.020507812,-1.0336914,-0.048954356,2.031606,0.05214703,209.70001,20.1,-10.5,42.311764,-2.9883723,0,1,0,0,3.673762,3.0702677,FALSE,0
34566,-0.00390625,-0.020507812,-1.0336914,-0.048954356,2.031606,0.05214703,209.70001,20.1,-10.5,42.311764,-2.9883723,0,1,0,0,3.673762,3.0702677,FALSE,0
34566,-0.00390625,-0.020507812,-1.0336914,-0.048954356,2.031606,0.05214703,209.70001,20.1,-10.5,42.311764,-2.9883723,0,1,0,0,3.673762,3.0702677,FALSE,0
34566,-0.00390625,-0.020507812,-1.0336914,-0.048954356,2.031606,0.05214703,209.70001,20.1,-10.5,42.311764,-2.9883723,0,1,0,0,3.673762,3.0702677,FALSE,0
34567,-0.00390625,-0.020507812,-1.0336914,-0.048954356,2.031606,0.05214703,209.70001,20.1,-10.5,42.311764,-2.9883723,0,1,0,0,3.673762,3.0702677,FALSE,0
34567,-0.00390625,-0.020507812,-1.0336914,-0.048954356,2.031606,0.05214703,209.70001,20.1,-10.5,42.311764,-2.9883723,0,1,0,0,3.673762,3.0702677,FALSE,0
34567,-0.00390625,-0.020507812,-1.0336914,-0.048954356,2.031606,0.05214703,209.70001,20.1,-10.5,42.311764,-2.9883723,0,1,0,0,3.673762,3.0702677,FALSE,0
34567,-0.00390625,-0.020507812,-1.0336914,-0.048954356,2.031606,0.05214703,209.70001,20.1,-10.5,42.311764,-2.9883723,0,1,0,0,3.673762,3.0702677,FALSE,0
34567,-0.00390625,-0.020507812,-1.0336914,-0.048954356,2.031606,0.05214703,209.70001,20.1,-10.5,42.311764,-2.9883723,0,1,0,0,3.673762,3.0702677,FALSE,0
34567,-0.00390625,-0.020507812,-1.0336914,-0.048954356,2.031606,0.05214703,209.70001,20.1,-10.5,42.311764,-2.9883723,0,1,0,0,3.673762,3.0702677,FALSE,0
34567,-0.00390625,-0.020507812,-1.0336914,-0.048954356,2.031606,0.05214703,209.70001,20.1,-10.5,42.311764,-2.9883723,0,1,0,0,3.673762,3.0702677,FALSE,0
34567,-0.00390625,-0.020507812,-1.0336914,-0.048954356,2.031606,0.05214703,209.70001,20.1,-10.5,42.311764,-2.9883723,0,1,0,0,3.673762,3.0702677,FALSE,0
34567,-0.00390625,-0.020507812,-1.0336914,-0.048954356,2.031606,0.05214703,209.70001,20.1,-10.5,42.311764,-2.9883723,0,1,0,0,3.673762,3.0702677,FALSE,0
34567,-0.00390625,-0.020507812,-1.0336914,-0.048954356,2.031606,0.05214703,209.70001,20.1,-10.5,42.311764,-2.9883723,0,1,0,0,3.673762,3.0702677,FALSE,0
34567,-0.00390625,-0.020507812,-1.0336914,-0.048954356,2.031606,0.05214703,209.70001,20.1,-10.5,42.311764,-2.9883723,0,1,0,0,3.673762,3.0702677,FALSE,0
34567,-0.00390625,-0.020507812,-1.0336914,-0.048954356,2.031606,0.05214703,209.70001,20.1,-10.5,42.311764,-2.9883723,0,1,0,0,3.673762,3.0702677,FALSE,0
34567,-0.00390625,-0.020507812,-1.0336914,-0.048954356,2.031606,0.05214703,209.70001,20.1,-10.5,42.311764,-2.9883723,0,1,0,0,3.673762,3.0702677,FALSE,0
34567,-0.00390625,-0.020507812,-1.0336914,-0.048954356,2.031606,0.05214703,209.70001,20.1,-10.5,42.311764,-2.9883723,0,1,0,0,3.673762,3.0702677,FALSE,0
34567,-0.00390625,-0.020507812,-1.0336914,-0.048954356,2.031606,0.05214703,209.70001,20.1,-10.5,42.311764,-2.9883723,0,1,0,0,3.673762,3.0702677,FALSE,0
34567,-0.00390625,-0.020507812,-1.0336914,-0.048954356,2.031606,0.05214703,209.70001,20.1,-10.5,42.311764,-2.9883723,0,1,0,0,3.673762,3.0702677,FALSE,0
34567,-0.00390625,-0.020507812,-1.0336914,-0.048954356,2.031606,0.05214703,209.70001,20.1,-10.5,42.311764,-2.9883723,0,1,0,0,3.673762,3.0702677,FALSE,0
34567,-0.00390625,-0.020507812,-1.0336914,-0.048954356,2.031606,0.05214703,209.70001,20.1,-10.5,42.311764,-2.9883723,0,1,0,0,3.673762,3.0702677,FALSE,0
34567,-0.00390625,-0.020507812,-1.0336914,-0.048954356,2.031606,0.05214703,209.70001,20.1,-10.5,42.311764,-2.9883723,0,1,0,0,3.673762,3.0702677,FALSE,0
34567,-0.00390625,-0.020507812,-1.0336914,-0.048954356,2.031606,0.05214703,209.70001,20.1,-10.5,42.311764,-2.9883723,0,1,0,0,3.673762,3.0702677,FALSE,0
34567,-0.00390625,-0.020507812,-1.0336914,-0.048954356,2.031606,0.05214703,209.70001,20.1,-10.5,42.311764,-2.9883723,0,1,0,0,3.673762,3.0702677,FALSE,0
34567,-0.00390625,-0.020507812,-1.0336914,-0.048954356,2.031606,0.05214703,209.70001,20.1,-10.5,42.311764,-2.9883723,0,1,0,0,3.673762,3.0702677,FALSE,0
34567,-0.00390625,-0.020507812,-1.0336914,-0.048954356,2.031606,0.05214703,209.70001,20.1,-10.5,42.311764,-2.9883723,0,1,0,0,3.673762,3.0702677,FALSE,0
34567,-0.00390625,-0.020507812,-1.0336914,-0.048954356,2.031606,0.05214703,209.70001,20.1,-10.5,42.311764,-2.9883723,0,1,0,0,3.673762,3.0702677,FALSE,0
34567,-0.00390625,-0.020507812,-1.0336914,-0.048954356,2.031606,0.05214703,209.70001,20.1,-10.5,42.311764,-2.9883723,0,1,0,0,3.673762,3.0702677,FALSE,0
34568,-0.00390625,-0.020507812,-1.0336914,-0.048954356,2.031606,0.05214703,209.70001,20.1,-10.5,42.311764,-2.9883723,0,1,0,0,3.673762,3.0702677,FALSE,0
34568,-0.00390625,-0.020507812,-1.0336914,-0.048954356,2.031606,0.05214703,209.70001,20.1,-10.5,42.311764,-2.9883723,0,1,0,0,3.673762,3.0702677,FALSE,0
34568,-0.00390625,-0.020507812,-1.0336914,-0.048954356,2.031606,0.05214703,209.70001,20.1,-10.5,42.311764,-2.9883723,0,1,0,0,3.673762,3.0702677,FALSE,0
34568,-0.00390625,-0.020507812,-1.0336914,-0.048954356,2.031606,0.05214703,209.70001,20.1,-10.5,42.311764,-2.9883723,0,1,0,0,3.673762,3.0702677,FALSE,0
34568,-0.002441406,-0.024414062,-1.0317383,-0.05214703,2.0305417,0.05108281,210.3,17.400002,-12,42.335293,-2.9883723,0,1,0,0,3.673762,3.0702677,FALSE,0
34616,-0.002441406,-0.024414062,-1.0317383,-0.05214703,2.0305417,0.05108281,210.3,17.400002,-12,42.335293,-2.9883723,0,1,0,0,3.673762,3.0702677,FALSE,0
34616,-0.002441406,-0.024414062,-1.0317383,-0.05214703,2.0305417,0.05108281,210.3,17.400002,-12,42.335293,-2.9883723,0,1,0,0,3.673762,3.0702677,FALSE,0
34616,-0.002441406,-0.024414062,-1.0317383,-0.05214703,2.0305417,0.05108281,210.3,17.400002,-12,42.335293,-2.9883723,0,1,0,0,3.673762,3.0702677,FALSE,0
34616,-0.002441406,-0.024414062,-1.0317383,-0.05214703,2.0305417,0.05108281,210.3,17.400002,-12,42.335293,-2.9883723,0,1,0,0,3.673762,3.0702677,FALSE,0
34616,-0.002441406,-0.024414062,-1.0317383,-0.05214703,2.0305417,0.05108281,210.3,17.400002,-12,42.335293,-2.9883723,0,1,0,0,3.673762,3.0702677,FALSE,0
34616,-0.002441406,-0.024414062,-1.0317383,-0.05214703,2.0305417,0.05108281,210.3,17.400002,-12,42.335293,-2.9883723,0,1,0,0,3.673762,3.0702677,FALSE,0
34616,-0.002441406,-0.024414062,-1.0317383,-0.05214703,2.0305417,0.05108281,210.3,17.400002,-12,42.335293,-2.9883723,0,1,0,0,3.673762,3.0702677,FALSE,0
34616,-0.002441406,-0.024414062,-1.0317383,-0.05214703,2.0305417,0.05108281,210.3,17.400002,-12,42.335293,-2.9883723,0,1,0,0,3.673762,3.0702677,FALSE,0
34616,-0.002441406,-0.024414062,-1.0317383,-0.05214703,2.0305417,0.05108281,210.3,17.400002,-12,42.335293,-2.9883723,0,1,0,0,3.673762,3.0702677,FALSE,0
34616,-0.002441406,-0.024414062,-1.0317383,-0.05214703,2.0305417,0.05108281,210.3,17.400002,-12,42.335293,-2.9883723,0,1,0,0,3.673762,3.0702677,FALSE,0
34616,-0.002441406,-0.024414062,-1.0317383,-0.05214703,2.0305417,0.05108281,210.3,17.400002,-12,42.335293,-2.9883723,0,1,0,0,3.673762,3.0702677,FALSE,0
34616,-0.002441406,-0.024414062,-1.0317383,-0.05214703,2.0305417,0.05108281,210.3,17.400002,-12,42.335293,-2.9883723,0,1,0,0,3.673762,3.0702677,FALSE,0
34616,-0.002441406,-0.024414062,-1.0317383,-0.05214703,2.0305417,0.05108281,210.3,17.400002,-12,42.335293,-2.9883723,0,1,0,0,3.673762,3.0702677,FALSE,0
34616,-0.002441406,-0.024414062,-1.0317383,-0.05214703,2.0305417,0.05108281,210.3,17.400002,-12,42.335293,-2.9883723,0,1,0,0,3.673762,3.0702677,FALSE,0
34616,-0.002441406,-0.024414062,-1.0317383,-0.05214703,2.0305417,0.05108281,210.3,17.400002,-12,42.335293,-2.9883723,0,1,0,0,3.673762,3.0702677,FALSE,0
34616,-0.002441406,-0.024414062,-1.0317383,-0.05214703,2.0305417,0.05108281,210.3,17.400002,-12,42.335293,-2.9883723,0,1,0,0,3.673762,3.0702677,FALSE,0
34616,-0.002441406,-0.024414062,-1.0317383,-0.05214703,2.0305417,0.05108281,210.3,17.400002,-12,42.335293,-2.9883723,0,1,0,0,3.673762,3.0702677,FALSE,0
34616,-0.002441406,-0.024414062,-1.0317383,-0.05214703,2.0305417,0.05108281,210.3,17.400002,-12,42.335293,-2.9883723,0,1,0,0,3.673762,3.0702677,FALSE,0
34616,-0.002441406,-0.024414062,-1.0317383,-0.05214703,2.0305417,0.05108281,210.3,17.400002,-12,42.335293,-2.9883723,0,1,0,0,3.673762,3.0702677,FALSE,0
34616,-0.002441406,-0.024414062,-1.0317383,-0.05214703,2.0305417,0.05108281,210.3,17.400002,-12,42.335293,-2.9883723,0,1,0,0,3.673762,3.0702677,FALSE,0
34616,-0.002441406,-0.024414062,-1.0317383,-0.05214703,2.0305417,0.05108281,210.3,17.400002,-12,42.335293,-2.9883723,0,1,0,0,3.673762,3.0702677,FALSE,0
34616,-0.002441406,-0.024414062,-1.0317383,-0.05214703,2.0305417,0.05108281,210.3,17.400002,-12,42.335293,-2.9883723,0,1,0,0,3.673762,3.0702677,FALSE,0
34626,-0.002441406,-0.024414062,-1.0317383,-0.05214703,2.0305417,0.05108281,210.3,17.400002,-12,42.335293,-2.9883723,0,1,0,0,3.673762,3.0702677,FALSE,0
34626,-0.002441406,-0.024414062,-1.0317383,-0.05214703,2.0305417,0.05108281,210.3,17.400002,-12,42.335293,-2.9883723,0,1,0,0,3.673762,3.0702677,FALSE,0
34626,-0.002441406,-0.024414062,-1.0317383,-0.05214703,2.0305417,0.05108281,210.3,17.400002,-12,42.335293,-2.9883723,0,1,0,0,3.673762,3.0702677,FALSE,0
34626,-0.002441406,-0.024414062,-1.0317383,-0.05214703,2.0305417,0.05108281,210.3,17.400002,-12,42.335293,-2.9883723,0,1,0,0,3.673762,3.0702677,FALSE,0
34626,-0.002441406,-0.024414062,-1.0317383,-0.05214703,2.0305417,0.05108281,210.3,17.400002,-12,42.335293,-2.9883723,0,1,0,0,3.673762,3.0702677,FALSE,0
34626,-0.002441406,-0.024414062,-1.0317383,-0.05214703,2.0305417,0.05108281,210.3,17.400002,-12,42.335293,-2.9883723,0,1,0,0,3.673762,3.0702677,FALSE,0
34626,-0.002441406,-0.024414062,-1.0317383,-0.05214703,2.0305417,0.05108281,210.3,17.400002,-12,42.335293,-2.9883723,0,1,0,0,3.673762,3.0702677,FALSE,0
34626,-0.002441406,-0.024414062,-1.0317383,-0.05214703,2.0305417,0.05108281,210.3,17.400002,-12,42.335293,-2.9883723,0,1,0,0,3.673762,3.0702677,FALSE,0
34626,-0.002441406,-0.024414062,-1.0317383,-0.05214703,2.0305417,0.05108281,210.3,17.400002,-12,42.335293,-2.9883723,0,1,0,0,3.673762,3.0702677,FALSE,0
34626,-0.002441406,-0.024414062,-1.0317383,-0.05214703,2.0305417,0.05108281,210.3,17.400002,-12,42.335293,-2.9883723,0,1,0,0,3.673762,3.0702677,FALSE,0
34626,-0.002441406,-0.024414062,-1.0317383,-0.05214703,2.0305417,0.05108281,210.3,17.400002,-12,42.335293,-2.9883723,0,1,0,0,3.673762,3.0702677,FALSE,0
34626,-0.002441406,-0.024414062,-1.0317383,-0.05214703,2.0305417,0.05108281,210.3,17.400002,-12,42.335293,-2.9883723,0,1,0,0,3.673762,3.0702677,FALSE,0
34626,-0.002441406,-0.024414062,-1.0317383,-0.05214703,2.0305417,0.05108281,210.3,17.400002,-12,42.335293,-2.9883723,0,1,0,0,3.673762,3.0702677,FALSE,0
34626,-0.002441406,-0.024414062,-1.0317383,-0.05214703,2.0305417,0.05108281,210.3,17.400002,-12,42.335293,-2.9883723,0,1,0,0,3.673762,3.0702677,FALSE,0
34626,-0.002441406,-0.024414062,-1.0317383,-0.05214703,2.0305417,0.05108281,210.3,17.400002,-12,42.335293,-2.9883723,0,1,0,0,3.673762,3.0702677,FALSE,0
34626,-0.002441406,-0.024414062,-1.0317383,-0.05214703,2.0305417,0.05108281,210.3,17.400002,-12,42.335293,-2.9883723,0,1,0,0,3.673762,3.0702677,FALSE,0
34626,-0.002441406,-0.024414062,-1.0317383,-0.05214703,2.0305417,0.05108281,210.3,17.400002,-12,42.335293,-2.9883723,0,1,0,0,3.673762,3.0702677,FALSE,0
34626,-0.002441406,-0.024414062,-1.0317383,-0.05214703,2.0305417,0.05108281,210.3,17.400002,-12,42.335293,-2.9883723,0,1,0,0,3.673762,3.0702677,FALSE,0
34626,-0.002441406,-0.024414062,-1.0317383,-0.05214703,2.0305417,0.05108281,210.3,17.400002,-12,42.335293,-2.9883723,0,1,0,0,3.673762,3.0702677,FALSE,0
34626,-0.002441406,-0.024414062,-1.0317383,-0.05214703,2.0305417,0.05108281,210.3,17.400002,-12,42.335293,-2.9883723,0,1,0,0,3.673762,3.0702677,FALSE,0
34626,-0.00390625,-0.021972656,-1.0317383,-0.054275483,2.028413,0.05108281,210.90001,18.6,-9.900001,42.335293,-2.9883723,0,1,0,0,3.6562142,3.0702677,FALSE,0
34670,-0.00390625,-0.021972656,-1.0317383,-0.054275483,2.028413,0.05108281,210.90001,18.6,-9.900001,42.335293,-2.9883723,0,1,0,0,3.6562142,3.0702677,FALSE,0
34670,-0.00390625,-0.021972656,-1.0317383,-0.054275483,2.028413,0.05108281,210.90001,18.6,-9.900001,42.335293,-2.9883723,0,1,0,0,3.6562142,3.0702677,FALSE,0
34670,-0.00390625,-0.021972656,-1.0317383,-0.054275483,2.028413,0.05108281,210.90001,18.6,-9.900001,42.335293,-2.9883723,0,1,0,0,3.6562142,3.0702677,FALSE,0
34670,-0.00390625,-0.021972656,-1.0317383,-0.054275483,2.028413,0.05108281,210.90001,18.6,-9.900001,42.335293,-2.9883723,0,1,0,0,3.6562142,3.0702677,FALSE,0
34670,-0.00390625,-0.021972656,-1.0317383,-0.054275483,2.028413,0.05108281,210.90001,18.6,-9.900001,42.335293,-2.9883723,0,1,0,0,3.6562142,3.0702677,FALSE,0
34670,-0.00390625,-0.021972656,-1.0317383,-0.054275483,2.028413,0.05108281,210.90001,18.6,-9.900001,42.335293,-2.9883723,0,1,0,0,3.6562142,3.0702677,FALSE,0
34670,-0.00390625,-0.021972656,-1.0317383,-0.054275483,2.028413,0.05108281,210.90001,18.6,-9.900001,42.335293,-2.9883723,0,1,0,0,3.6562142,3.0702677,FALSE,0
34670,-0.00390625,-0.021972656,-1.0317383,-0.054275483,2.028413,0.05108281,210.90001,18.6,-9.900001,42.335293,-2.9883723,0,1,0,0,3.6562142,3.0702677,FALSE,0
34670,-0.00390625,-0.021972656,-1.0317383,-0.054275483,2.028413,0.05108281,210.90001,18.6,-9.900001,42.335293,-2.9883723,0,1,0,0,3.6562142,3.0702677,FALSE,0
34670,-0.00390625,-0.021972656,-1.0317383,-0.054275483,2.028413,0.05108281,210.90001,18.6,-9.900001,42.335293,-2.9883723,0,1,0,0,3.6562142,3.0702677,FALSE,0
34670,-0.00390625,-0.021972656,-1.0317383,-0.054275483,2.028413,0.05108281,210.90001,18.6,-9.900001,42.335293,-2.9883723,0,1,0,0,3.6562142,3.0702677,FALSE,0
34670,-0.00390625,-0.021972656,-1.0317383,-0.054275483,2.028413,0.05108281,210.90001,18.6,-9.900001,42.335293,-2.9883723,0,1,0,0,3.6562142,3.0702677,FALSE,0
34670,-0.00390625,-0.021972656,-1.0317383,-0.054275483,2.028413,0.05108281,210.90001,18.6,-9.900001,42.335293,-2.9883723,0,1,0,0,3.6562142,3.0702677,FALSE,0
34670,-0.00390625,-0.021972656,-1.0317383,-0.054275483,2.028413,0.05108281,210.90001,18.6,-9.900001,42.335293,-2.9883723,0,1,0,0,3.6562142,3.0702677,FALSE,0
34670,-0.00390625,-0.021972656,-1.0317383,-0.054275483,2.028413,0.05108281,210.90001,18.6,-9.900001,42.335293,-2.9883723,0,1,0,0,3.6562142,3.0702677,FALSE,0
34670,-0.00390625,-0.021972656,-1.0317383,-0.054275483,2.028413,0.05108281,210.90001,18.6,-9.900001,42.335293,-2.9883723,0,1,0,0,3.6562142,3.0702677,FALSE,0
34670,-0.00390625,-0.021972656,-1.0317383,-0.054275483,2.028413,0.05108281,210.90001,18.6,-9.900001,42.335293,-2.9883723,0,1,0,0,3.6562142,3.0702677,FALSE,0
34670,-0.00390625,-0.021972656,-1.0317383,-0.054275483,2.028413,0.05108281,210.90001,18.6,-9.900001,42.335293,-2.9883723,0,1,0,0,3.6562142,3.0702677,FALSE,0
34670,-0.00390625,-0.021972656,-1.0317383,-0.054275483,2.028413,0.05108281,210.90001,18.6,-9.900001,42.335293,-2.9883723,0,1,0,0,3.6562142,3.0702677,FALSE,0
34671,-0.00390625,-0.021972656,-1.0317383,-0.054275483,2.028413,0.05108281,210.90001,18.6,-9.900001,42.335293,-2.9883723,0,1,0,0,3.6562142,3.0702677,FALSE,0
34671,-0.00390625,-0.021972656,-1.0317383,-0.054275483,2.028413,0.05108281,210.90001,18.6,-9.900001,42.335293,-2.9883723,0,1,0,0,3.6562142,3.0702677,FALSE,0
34671,-0.00390625,-0.021972656,-1.0317383,-0.054275483,2.028413,0.05108281,210.90001,18.6,-9.900001,42.335293,-2.9883723,0,1,0,0,3.6562142,3.0702677,FALSE,0
34671,-0.00390625,-0.021972656,-1.0317383,-0.054275483,2.028413,0.05108281,210.90001,18.6,-9.900001,42.335293,-2.9883723,0,1,0,0,3.6562142,3.0702677,FALSE,0
34671,-0.00390625,-0.021972656,-1.0317383,-0.054275483,2.028413,0.05108281,210.90001,18.6,-9.900001,42.335293,-2.9883723,0,1,0,0,3.6562142,3.0702677,FALSE,0
34671,-0.00390625,-0.021972656,-1.0317383,-0.054275483,2.028413,0.05108281,210.90001,18.6,-9.900001,42.335293,-2.9883723,0,1,0,0,3.6562142,3.0702677,FALSE,0
34671,-0.00390625,-0.021972656,-1.0317383,-0.054275483,2.028413,0.05108281,210.90001,18.6,-9.900001,42.335293,-2.9883723,0,1,0,0,3.6562142,3.0702677,FALSE,0
34671,-0.00390625,-0.021972656,-1.0317383,-0.054275483,2.028413,0.05108281,210.90001,18.6,-9.900001,42.335293,-2.9883723,0,1,0,0,3.6562142,3.0702677,FALSE,0
34671,-0.00390625,-0.021972656,-1.0317383,-0.054275483,2.028413,0.05108281,210.90001,18.6,-9.900001,42.335293,-2.9883723,0,1,0,0,3.6562142,3.0702677,FALSE,0
34671,-0.00390625,-0.021972656,-1.0317383,-0.054275483,2.028413,0.05108281,210.90001,18.6,-9.900001,42.335293,-2.9883723,0,1,0,0,3.6562142,3.0702677,FALSE,0
34671,-0.00390625,-0.021972656,-1.0317383,-0.054275483,2.028413,0.05108281,210.90001,18.6,-9.900001,42.335293,-2.9883723,0,1,0,0,3.6562142,3.0702677,FALSE,0
34671,-0.00390625,-0.021972656,-1.0317383,-0.054275483,2.028413,0.05108281,210.90001,18.6,-9.900001,42.335293,-2.9883723,0,1,0,0,3.6562142,3.0702677,FALSE,0
34671,-0.00390625,-0.021972656,-1.0317383,-0.054275483,2.028413,0.05108281,210.90001,18.6,-9.900001,42.335293,-2.9883723,0,1,0,0,3.6562142,3.0702677,FALSE,0
34671,-0.00390625,-0.021972656,-1.0317383,-0.054275483,2.028413,0.05108281,210.90001,18.6,-9.900001,42.335293,-2.9883723,0,1,0,0,3.6562142,3.0702677,FALSE,0
34671,-0.00390625,-0.021972656,-1.0317383,-0.054275483,2.028413,0.05108281,210.90001,18.6,-9.900001,42.335293,-2.9883723,0,1,0,0,3.6562142,3.0702677,FALSE,0
34671,-0.00390625,-0.021972656,-1.0317383,-0.054275483,2.028413,0.05108281,210.90001,18.6,-9.900001,42.335293,-2.9883723,0,1,0,0,3.6562142,3.0702677,FALSE,0
34671,-0.00390625,-0.021972656,-1.0317383,-0.054275483,2.028413,0.05108281,210.90001,18.6,-9.900001,42.335293,-2.9883723,0,1,0,0,3.6562142,3.0702677,FALSE,0
34671,-0.00390625,-0.021972656,-1.0317383,-0.054275483,2.028413,0.05108281,210.90001,18.6,-9.900001,42.335293,-2.9883723,0,1,0,0,3.6562142,3.0702677,FALSE,0
34671,-0.00390625,-0.021972656,-1.0317383,-0.054275483,2.028413,0.05108281,210.90001,18.6,-9.900001,42.335293,-2.9883723,0,1,0,0,3.6562142,3.0702677,FALSE,0
34671,-0.00390625,-0.021972656,-1.0317383,-0.054275483,2.028413,0.05108281,210.90001,18.6,-9.900001,42.335293,-2.9883723,0,1,0,0,3.6562142,3.0702677,FALSE,0
34671,-0.00390625,-0.021972656,-1.0317383,-0.054275483,2.028413,0.05108281,210.90001,18.6,-9.900001,42.335293,-2.9883723,0,1,0,0,3.6562142,3.0702677,FALSE,0
34671,-0.00390625,-0.021972656,-1.0317383,-0.054275483,2.028413,0.05108281,210.90001,18.6,-9.900001,42.335293,-2.9883723,0,1,0,0,3.6562142,3.0702677,FALSE,0
34671,-0.00390625,-0.021972656,-1.0317383,-0.054275483,2.028413,0.05108281,210.90001,18.6,-9.900001,42.335293,-2.9883723,0,1,0,0,3.6562142,3.0702677,FALSE,0
34671,-0.00390625,-0.020996094,-1.0366211,-0.05214703,2.0305417,0.05214703,210.00002,17.7,-10.8,42.311764,-2.9883723,0,1,0,0,3.673762,3.0702677,FALSE,0
34719,-0.00390625,-0.020996094,-1.0366211,-0.05214703,2.0305417,0.05214703,210.00002,17.7,-10.8,42.311764,-2.9883723,0,1,0,0,3.673762,3.0702677,FALSE,0
34719,-0.00390625,-0.020996094,-1.0366211,-0.05214703,2.0305417,0.05214703,210.00002,17.7,-10.8,42.311764,-2.9883723,0,1,0,0,3.673762,3.0702677,FALSE,0
34720,-0.00390625,-0.020996094,-1.0366211,-0.05214703,2.0305417,0.05214703,210.00002,17.7,-10.8,42.311764,-2.9883723,0,1,0,0,3.673762,3.0702677,FALSE,0
34721,-0.00390625,-0.020996094,-1.0366211,-0.05214703,2.0305417,0.05214703,210.00002,17.7,-10.8,42.311764,-2.9883723,0,1,0,0,3.673762,3.0702677,FALSE,0
34721,-0.00390625,-0.020996094,-1.0366211,-0.05214703,2.0305417,0.05214703,210.00002,17.7,-10.8,42.311764,-2.9883723,0,1,0,0,3.673762,3.0702677,FALSE,0
34721,-0.00390625,-0.020996094,-1.0366211,-0.05214703,2.0305417,0.05214703,210.00002,17.7,-10.8,42.311764,-2.9883723,0,1,0,0,3.673762,3.0702677,FALSE,0
34721,-0.00390625,-0.020996094,-1.0366211,-0.05214703,2.0305417,0.05214703,210.00002,17.7,-10.8,42.311764,-2.9883723,0,1,0,0,3.673762,3.0702677,FALSE,0
34721,-0.00390625,-0.020996094,-1.0366211,-0.05214703,2.0305417,0.05214703,210.00002,17.7,-10.8,42.311764,-2.9883723,0,1,0,0,3.673762,3.0702677,FALSE,0
34721,-0.00390625,-0.020996094,-1.0366211,-0.05214703,2.0305417,0.05214703,210.00002,17.7,-10.8,42.311764,-2.9883723,0,1,0,0,3.673762,3.0702677,FALSE,0
34721,-0.00390625,-0.020996094,-1.0366211,-0.05214703,2.0305417,0.05214703,210.00002,17.7,-10.8,42.311764,-2.9883723,0,1,0,0,3.673762,3.0702677,FALSE,0
34721,-0.00390625,-0.020996094,-1.0366211,-0.05214703,2.0305417,0.05214703,210.00002,17.7,-10.8,42.311764,-2.9883723,0,1,0,0,3.673762,3.0702677,FALSE,0
34721,-0.00390625,-0.020996094,-1.0366211,-0.05214703,2.0305417,0.05214703,210.00002,17.7,-10.8,42.311764,-2.9883723,0,1,0,0,3.673762,3.0702677,FALSE,0
34721,-0.00390625,-0.020996094,-1.0366211,-0.05214703,2.0305417,0.05214703,210.00002,17.7,-10.8,42.311764,-2.9883723,0,1,0,0,3.673762,3.0702677,FALSE,0
34721,-0.00390625,-0.020996094,-1.0366211,-0.05214703,2.0305417,0.05214703,210.00002,17.7,-10.8,42.311764,-2.9883723,0,1,0,0,3.673762,3.0702677,FALSE,0
34721,-0.00390625,-0.020996094,-1.0366211,-0.05214703,2.0305417,0.05214703,210.00002,17.7,-10.8,42.311764,-2.9883723,0,1,0,0,3.673762,3.0702677,FALSE,0
34721,-0.00390625,-0.020996094,-1.0366211,-0.05214703,2.0305417,0.05214703,210.00002,17.7,-10.8,42.311764,-2.9883723,0,1,0,0,3.673762,3.0702677,FALSE,0
34721,-0.00390625,-0.020996094,-1.0366211,-0.05214703,2.0305417,0.05214703,210.00002,17.7,-10.8,42.311764,-2.9883723,0,1,0,0,3.673762,3.0702677,FALSE,0
34721,-0.00390625,-0.020996094,-1.0366211,-0.05214703,2.0305417,0.05214703,210.00002,17.7,-10.8,42.311764,-2.9883723,0,1,0,0,3.673762,3.0702677,FALSE,0
34721,-0.00390625,-0.020996094,-1.0366211,-0.05214703,2.0305417,0.05214703,210.00002,17.7,-10.8,42.311764,-2.9883723,0,1,0,0,3.673762,3.0702677,FALSE,0
34721,-0.00390625,-0.020996094,-1.0366211,-0.05214703,2.0305417,0.05214703,210.00002,17.7,-10.8,42.311764,-2.9883723,0,1,0,0,3.673762,3.0702677,FALSE,0
34721,-0.00390625,-0.020996094,-1.0366211,-0.05214703,2.0305417,0.05214703,210.00002,17.7,-10.8,42.311764,-2.9883723,0,1,0,0,3.673762,3.0702677,FALSE,0
34721,-0.00390625,-0.020996094,-1.0366211,-0.05214703,2.0305417,0.05214703,210.00002,17.7,-10.8,42.311764,-2.9883723,0,1,0,0,3.673762,3.0702677,FALSE,0
34721,-0.00390625,-0.020996094,-1.0366211,-0.05214703,2.0305417,0.05214703,210.00002,17.7,-10.8,42.311764,-2.9883723,0,1,0,0,3.673762,3.0702677,FALSE,0
34721,-0.00390625,-0.020996094,-1.0366211,-0.05214703,2.0305417,0.05214703,210.00002,17.7,-10.8,42.311764,-2.9883723,0,1,0,0,3.673762,3.0702677,FALSE,0
34721,-0.00390625,-0.020996094,-1.0366211,-0.05214703,2.0305417,0.05214703,210.00002,17.7,-10.8,42.311764,-2.9883723,0,1,0,0,3.673762,3.0702677,FALSE,0
34721,-0.00390625,-0.020996094,-1.0366211,-0.05214703,2.0305417,0.05214703,210.00002,17.7,-10.8,42.311764,-2.9883723,0,1,0,0,3.673762,3.0702677,FALSE,0
34721,-0.00390625,-0.020996094,-1.0366211,-0.05214703,2.0305417,0.05214703,210.00002,17.7,-10.8,42.311764,-2.9883723,0,1,0,0,3.673762,3.0702677,FALSE,0
34721,-0.00390625,-0.020996094,-1.0366211,-0.05214703,2.0305417,0.05214703,210.00002,17.7,-10.8,42.311764,-2.9883723,0,1,0,0,3.673762,3.0702677,FALSE,0
34721,-0.00390625,-0.020996094,-1.0366211,-0.05214703,2.0305417,0.05214703,210.00002,17.7,-10.8,42.311764,-2.9883723,0,1,0,0,3.673762,3.0702677,FALSE,0
34721,-0.00390625,-0.020996094,-1.0366211,-0.05214703,2.0305417,0.05214703,210.00002,17.7,-10.8,42.311764,-2.9883723,0,1,0,0,3.673762,3.0702677,FALSE,0
34721,-0.00390625,-0.020996094,-1.0366211,-0.05214703,2.0305417,0.05214703,210.00002,17.7,-10.8,42.311764,-2.9883723,0,1,0,0,3.673762,3.0702677,FALSE,0
34721,-0.00390625,-0.020996094,-1.0366211,-0.05214703,2.0305417,0.05214703,210.00002,17.7,-10.8,42.311764,-2.9883723,0,1,0,0,3.673762,3.0702677,FALSE,0
34721,-0.00390625,-0.020996094,-1.0366211,-0.05214703,2.0305417,0.05214703,210.00002,17.7,-10.8,42.311764,-2.9883723,0,1,0,0,3.673762,3.0702677,FALSE,0
34721,-0.00390625,-0.020996094,-1.0366211,-0.05214703,2.0305417,0.05214703,210.00002,17.7,-10.8,42.311764,-2.9883723,0,1,0,0,3.673762,3.0702677,FALSE,0
34721,-0.00390625,-0.020996094,-1.0366211,-0.05214703,2.0305417,0.05214703,210.00002,17.7,-10.8,42.311764,-2.9883723,0,1,0,0,3.673762,3.0702677,FALSE,0
34721,-0.00390625,-0.020996094,-1.0366211,-0.05214703,2.0305417,0.05214703,210.00002,17.7,-10.8,42.311764,-2.9883723,0,1,0,0,3.673762,3.0702677,FALSE,0
34721,-0.00390625,-0.020996094,-1.0366211,-0.05214703,2.0305417,0.05214703,210.00002,17.7,-10.8,42.311764,-2.9883723,0,1,0,0,3.673762,3.0702677,FALSE,0
34721,-0.00390625,-0.020996094,-1.0366211,-0.05214703,2.0305417,0.05214703,210.00002,17.7,-10.8,42.311764,-2.9883723,0,1,0,0,3.673762,3.0702677,FALSE,0
34722,-0.00390625,-0.020996094,-1.0366211,-0.05214703,2.0305417,0.05214703,210.00002,17.7,-10.8,42.311764,-2.9883723,0,1,0,0,3.673762,3.0702677,FALSE,0
34722,-0.00390625,-0.020996094,-1.0366211,-0.05214703,2.0305417,0.05214703,210.00002,17.7,-10.8,42.311764,-2.9883723,0,1,0,0,3.673762,3.0702677,FALSE,0
34722,-0.00390625,-0.020996094,-1.0366211,-0.05214703,2.0305417,0.05214703,210.00002,17.7,-10.8,42.311764,-2.9883723,0,1,0,0,3.673762,3.0702677,FALSE,0
34722,-0.00390625,-0.020996094,-1.0366211,-0.05214703,2.0305417,0.05214703,210.00002,17.7,-10.8,42.311764,-2.9883723,0,1,0,0,3.673762,3.0702677,FALSE,0
34722,-0.002929688,-0.023925781,-1.0385742,-0.05214703,2.0305417,0.050018582,214.20001,18.300001,-9.6,42.311764,-2.9883723,0,1,0,0,3.6679637,3.0702677,FALSE,0
34782,-0.002929688,-0.023925781,-1.0385742,-0.05214703,2.0305417,0.050018582,214.20001,18.300001,-9.6,42.311764,-2.9883723,0,1,0,0,3.6679637,3.0702677,FALSE,0
34782,-0.002929688,-0.023925781,-1.0385742,-0.05214703,2.0305417,0.050018582,214.20001,18.300001,-9.6,42.311764,-2.9883723,0,1,0,0,3.6679637,3.0702677,FALSE,0
34782,-0.002929688,-0.023925781,-1.0385742,-0.05214703,2.0305417,0.050018582,214.20001,18.300001,-9.6,42.311764,-2.9883723,0,1,0,0,3.6679637,3.0702677,FALSE,0
34782,-0.002929688,-0.023925781,-1.0385742,-0.05214703,2.0305417,0.050018582,214.20001,18.300001,-9.6,42.311764,-2.9883723,0,1,0,0,3.6679637,3.0702677,FALSE,0
34783,-0.002929688,-0.023925781,-1.0385742,-0.05214703,2.0305417,0.050018582,214.20001,18.300001,-9.6,42.311764,-2.9883723,0,1,0,0,3.6679637,3.0702677,FALSE,0
34783,-0.002929688,-0.023925781,-1.0385742,-0.05214703,2.0305417,0.050018582,214.20001,18.300001,-9.6,42.311764,-2.9883723,0,1,0,0,3.6679637,3.0702677,FALSE,0
34783,-0.002929688,-0.023925781,-1.0385742,-0.05214703,2.0305417,0.050018582,214.20001,18.300001,-9.6,42.311764,-2.9883723,0,1,0,0,3.6679637,3.0702677,FALSE,0
34783,-0.002929688,-0.023925781,-1.0385742,-0.05214703,2.0305417,0.050018582,214.20001,18.300001,-9.6,42.311764,-2.9883723,0,1,0,0,3.6679637,3.0702677,FALSE,0
34783,-0.002929688,-0.023925781,-1.0385742,-0.05214703,2.0305417,0.050018582,214.20001,18.300001,-9.6,42.311764,-2.9883723,0,1,0,0,3.6679637,3.0702677,FALSE,0
34783,-0.002929688,-0.023925781,-1.0385742,-0.05214703,2.0305417,0.050018582,214.20001,18.300001,-9.6,42.311764,-2.9883723,0,1,0,0,3.6679637,3.0702677,FALSE,0
34783,-0.002929688,-0.023925781,-1.0385742,-0.05214703,2.0305417,0.050018582,214.20001,18.300001,-9.6,42.311764,-2.9883723,0,1,0,0,3.6679637,3.0702677,FALSE,0
34783,-0.002929688,-0.023925781,-1.0385742,-0.05214703,2.0305417,0.050018582,214.20001,18.300001,-9.6,42.311764,-2.9883723,0,1,0,0,3.6679637,3.0702677,FALSE,0
34783,-0.002929688,-0.023925781,-1.0385742,-0.05214703,2.0305417,0.050018582,214.20001,18.300001,-9.6,42.311764,-2.9883723,0,1,0,0,3.6679637,3.0702677,FALSE,0
34783,-0.002929688,-0.023925781,-1.0385742,-0.05214703,2.0305417,0.050018582,214.20001,18.300001,-9.6,42.311764,-2.9883723,0,1,0,0,3.6679637,3.0702677,FALSE,0
34783,-0.002929688,-0.023925781,-1.0385742,-0.05214703,2.0305417,0.050018582,214.20001,18.300001,-9.6,42.311764,-2.9883723,0,1,0,0,3.6679637,3.0702677,FALSE,0
34783,-0.002929688,-0.023925781,-1.0385742,-0.05214703,2.0305417,0.050018582,214.20001,18.300001,-9.6,42.311764,-2.9883723,0,1,0,0,3.6679637,3.0702677,FALSE,0
34783,-0.002929688,-0.023925781,-1.0385742,-0.05214703,2.0305417,0.050018582,214.20001,18.300001,-9.6,42.311764,-2.9883723,0,1,0,0,3.6679637,3.0702677,FALSE,0
34783,-0.002929688,-0.023925781,-1.0385742,-0.05214703,2.0305417,0.050018582,214.20001,18.300001,-9.6,42.311764,-2.9883723,0,1,0,0,3.6679637,3.0702677,FALSE,0
34783,-0.002929688,-0.023925781,-1.0385742,-0.05214703,2.0305417,0.050018582,214.20001,18.300001,-9.6,42.311764,-2.9883723,0,1,0,0,3.6679637,3.0702677,FALSE,0
34783,-0.002929688,-0.023925781,-1.0385742,-0.05214703,2.0305417,0.050018582,214.20001,18.300001,-9.6,42.311764,-2.9883723,0,1,0,0,3.6679637,3.0702677,FALSE,0
34783,-0.002929688,-0.023925781,-1.0385742,-0.05214703,2.0305417,0.050018582,214.20001,18.300001,-9.6,42.311764,-2.9883723,0,1,0,0,3.6679637,3.0702677,FALSE,0
34783,-0.002929688,-0.023925781,-1.0385742,-0.05214703,2.0305417,0.050018582,214.20001,18.300001,-9.6,42.311764,-2.9883723,0,1,0,0,3.6679637,3.0702677,FALSE,0
34783,-0.002929688,-0.023925781,-1.0385742,-0.05214703,2.0305417,0.050018582,214.20001,18.300001,-9.6,42.311764,-2.9883723,0,1,0,0,3.6679637,3.0702677,FALSE,0
34783,-0.002929688,-0.023925781,-1.0385742,-0.05214703,2.0305417,0.050018582,214.20001,18.300001,-9.6,42.311764,-2.9883723,0,1,0,0,3.6679637,3.0702677,FALSE,0
34783,-0.002929688,-0.023925781,-1.0385742,-0.05214703,2.0305417,0.050018582,214.20001,18.300001,-9.6,42.311764,-2.9883723,0,1,0,0,3.6679637,3.0702677,FALSE,0
34783,-0.002929688,-0.023925781,-1.0385742,-0.05214703,2.0305417,0.050018582,214.20001,18.300001,-9.6,42.311764,-2.9883723,0,1,0,0,3.6679637,3.0702677,FALSE,0
34783,-0.002929688,-0.023925781,-1.0385742,-0.05214703,2.0305417,0.050018582,214.20001,18.300001,-9.6,42.311764,-2.9883723,0,1,0,0,3.6679637,3.0702677,FALSE,0
34783,-0.002929688,-0.023925781,-1.0385742,-0.05214703,2.0305417,0.050018582,214.20001,18.300001,-9.6,42.311764,-2.9883723,0,1,0,0,3.6679637,3.0702677,FALSE,0
34783,-0.002929688,-0.023925781,-1.0385742,-0.05214703,2.0305417,0.050018582,214.20001,18.300001,-9.6,42.311764,-2.9883723,0,1,0,0,3.6679637,3.0702677,FALSE,0
34783,-0.002929688,-0.023925781,-1.0385742,-0.05214703,2.0305417,0.050018582,214.20001,18.300001,-9.6,42.311764,-2.9883723,0,1,0,0,3.6679637,3.0702677,FALSE,0
34784,-0.002929688,-0.023925781,-1.0385742,-0.05214703,2.0305417,0.050018582,214.20001,18.300001,-9.6,42.311764,-2.9883723,0,1,0,0,3.6679637,3.0702677,FALSE,0
34784,-0.002929688,-0.023925781,-1.0385742,-0.05214703,2.0305417,0.050018582,214.20001,18.300001,-9.6,42.311764,-2.9883723,0,1,0,0,3.6679637,3.0702677,FALSE,0
34784,-0.002929688,-0.023925781,-1.0385742,-0.05214703,2.0305417,0.050018582,214.20001,18.300001,-9.6,42.311764,-2.9883723,0,1,0,0,3.6679637,3.0702677,FALSE,0
34784,-0.002929688,-0.023925781,-1.0385742,-0.05214703,2.0305417,0.050018582,214.20001,18.300001,-9.6,42.311764,-2.9883723,0,1,0,0,3.6679637,3.0702677,FALSE,0
34784,-0.002929688,-0.023925781,-1.0385742,-0.05214703,2.0305417,0.050018582,214.20001,18.300001,-9.6,42.311764,-2.9883723,0,1,0,0,3.6679637,3.0702677,FALSE,0
34784,-0.002929688,-0.023925781,-1.0385742,-0.05214703,2.0305417,0.050018582,214.20001,18.300001,-9.6,42.311764,-2.9883723,0,1,0,0,3.6679637,3.0702677,FALSE,0
34784,-0.002929688,-0.023925781,-1.0385742,-0.05214703,2.0305417,0.050018582,214.20001,18.300001,-9.6,42.311764,-2.9883723,0,1,0,0,3.6679637,3.0702677,FALSE,0
34784,-0.002929688,-0.023925781,-1.0385742,-0.05214703,2.0305417,0.050018582,214.20001,18.300001,-9.6,42.311764,-2.9883723,0,1,0,0,3.6679637,3.0702677,FALSE,0
34784,-0.002929688,-0.023925781,-1.0385742,-0.05214703,2.0305417,0.050018582,214.20001,18.300001,-9.6,42.311764,-2.9883723,0,1,0,0,3.6679637,3.0702677,FALSE,0
34784,-0.002929688,-0.023925781,-1.0385742,-0.05214703,2.0305417,0.050018582,214.20001,18.300001,-9.6,42.311764,-2.9883723,0,1,0,0,3.6679637,3.0702677,FALSE,0
34784,-0.002929688,-0.023925781,-1.0385742,-0.05214703,2.0305417,0.050018582,214.20001,18.300001,-9.6,42.311764,-2.9883723,0,1,0,0,3.6679637,3.0702677,FALSE,0
34784,-0.002929688,-0.023925781,-1.0385742,-0.05214703,2.0305417,0.050018582,214.20001,18.300001,-9.6,42.311764,-2.9883723,0,1,0,0,3.6679637,3.0702677,FALSE,0
34784,-0.002929688,-0.0234375,-1.0317383,-0.048954356,2.031606,0.05108281,210.90001,20.7,-8.400001,42.335293,-2.9883723,0,1,0,0,3.6796367,3.064393,FALSE,0
34823,-0.002929688,-0.0234375,-1.0317383,-0.048954356,2.031606,0.05108281,210.90001,20.7,-8.400001,42.335293,-2.9883723,0,1,0,0,3.6796367,3.064393,FALSE,0
34823,-0.002929688,-0.0234375,-1.0317383,-0.048954356,2.031606,0.05108281,210.90001,20.7,-8.400001,42.335293,-2.9883723,0,1,0,0,3.6796367,3.064393,FALSE,0
34824,-0.002929688,-0.0234375,-1.0317383,-0.048954356,2.031606,0.05108281,210.90001,20.7,-8.400001,42.335293,-2.9883723,0,1,0,0,3.6796367,3.064393,FALSE,0
34824,-0.002929688,-0.0234375,-1.0317383,-0.048954356,2.031606,0.05108281,210.90001,20.7,-8.400001,42.335293,-2.9883723,0,1,0,0,3.6796367,3.064393,FALSE,0
34824,-0.002929688,-0.0234375,-1.0317383,-0.048954356,2.031606,0.05108281,210.90001,20.7,-8.400001,42.335293,-2.9883723,0,1,0,0,3.6796367,3.064393,FALSE,0
34824,-0.002929688,-0.0234375,-1.0317383,-0.048954356,2.031606,0.05108281,210.90001,20.7,-8.400001,42.335293,-2.9883723,0,1,0,0,3.6796367,3.064393,FALSE,0
34824,-0.002929688,-0.0234375,-1.0317383,-0.048954356,2.031606,0.05108281,210.90001,20.7,-8.400001,42.335293,-2.9883723,0,1,0,0,3.6796367,3.064393,FALSE,0
34824,-0.002929688,-0.0234375,-1.0317383,-0.048954356,2.031606,0.05108281,210.90001,20.7,-8.400001,42.335293,-2.9883723,0,1,0,0,3.6796367,3.064393,FALSE,0
34824,-0.002929688,-0.0234375,-1.0317383,-0.048954356,2.031606,0.05108281,210.90001,20.7,-8.400001,42.335293,-2.9883723,0,1,0,0,3.6796367,3.064393,FALSE,0
34824,-0.002929688,-0.0234375,-1.0317383,-0.048954356,2.031606,0.05108281,210.90001,20.7,-8.400001,42.335293,-2.9883723,0,1,0,0,3.6796367,3.064393,FALSE,0
34824,-0.002929688,-0.0234375,-1.0317383,-0.048954356,2.031606,0.05108281,210.90001,20.7,-8.400001,42.335293,-2.9883723,0,1,0,0,3.6796367,3.064393,FALSE,0
34824,-0.002929688,-0.0234375,-1.0317383,-0.048954356,2.031606,0.05108281,210.90001,20.7,-8.400001,42.335293,-2.9883723,0,1,0,0,3.6796367,3.064393,FALSE,0
34824,-0.002929688,-0.0234375,-1.0317383,-0.048954356,2.031606,0.05108281,210.90001,20.7,-8.400001,42.335293,-2.9883723,0,1,0,0,3.6796367,3.064393,FALSE,0
34824,-0.002929688,-0.0234375,-1.0317383,-0.048954356,2.031606,0.05108281,210.90001,20.7,-8.400001,42.335293,-2.9883723,0,1,0,0,3.6796367,3.064393,FALSE,0
34824,-0.002929688,-0.0234375,-1.0317383,-0.048954356,2.031606,0.05108281,210.90001,20.7,-8.400001,42.335293,-2.9883723,0,1,0,0,3.6796367,3.064393,FALSE,0
34824,-0.002929688,-0.0234375,-1.0317383,-0.048954356,2.031606,0.05108281,210.90001,20.7,-8.400001,42.335293,-2.9883723,0,1,0,0,3.6796367,3.064393,FALSE,0
34824,-0.002929688,-0.0234375,-1.0317383,-0.048954356,2.031606,0.05108281,210.90001,20.7,-8.400001,42.335293,-2.9883723,0,1,0,0,3.6796367,3.064393,FALSE,0
34824,-0.002929688,-0.0234375,-1.0317383,-0.048954356,2.031606,0.05108281,210.90001,20.7,-8.400001,42.335293,-2.9883723,0,1,0,0,3.6796367,3.064393,FALSE,0
34824,-0.002929688,-0.0234375,-1.0317383,-0.048954356,2.031606,0.05108281,210.90001,20.7,-8.400001,42.335293,-2.9883723,0,1,0,0,3.6796367,3.064393,FALSE,0
34824,-0.002929688,-0.0234375,-1.0317383,-0.048954356,2.031606,0.05108281,210.90001,20.7,-8.400001,42.335293,-2.9883723,0,1,0,0,3.6796367,3.064393,FALSE,0
34824,-0.002929688,-0.0234375,-1.0317383,-0.048954356,2.031606,0.05108281,210.90001,20.7,-8.400001,42.335293,-2.9883723,0,1,0,0,3.6796367,3.064393,FALSE,0
34824,-0.002929688,-0.0234375,-1.0317383,-0.048954356,2.031606,0.05108281,210.90001,20.7,-8.400001,42.335293,-2.9883723,0,1,0,0,3.6796367,3.064393,FALSE,0
34824,-0.002929688,-0.0234375,-1.0317383,-0.048954356,2.031606,0.05108281,210.90001,20.7,-8.400001,42.335293,-2.9883723,0,1,0,0,3.6796367,3.064393,FALSE,0
34824,-0.002929688,-0.0234375,-1.0317383,-0.048954356,2.031606,0.05108281,210.90001,20.7,-8.400001,42.335293,-2.9883723,0,1,0,0,3.6796367,3.064393,FALSE,0
34824,-0.002929688,-0.0234375,-1.0317383,-0.048954356,2.031606,0.05108281,210.90001,20.7,-8.400001,42.335293,-2.9883723,0,1,0,0,3.6796367,3.064393,FALSE,0
34824,-0.002929688,-0.0234375,-1.0317383,-0.048954356,2.031606,0.05108281,210.90001,20.7,-8.400001,42.335293,-2.9883723,0,1,0,0,3.6796367,3.064393,FALSE,0
34824,-0.002929688,-0.0234375,-1.0317383,-0.048954356,2.031606,0.05108281,210.90001,20.7,-8.400001,42.335293,-2.9883723,0,1,0,0,3.6796367,3.064393,FALSE,0
34824,-0.002929688,-0.0234375,-1.0317383,-0.048954356,2.031606,0.05108281,210.90001,20.7,-8.400001,42.335293,-2.9883723,0,1,0,0,3.6796367,3.064393,FALSE,0
34824,-0.002929688,-0.0234375,-1.0317383,-0.048954356,2.031606,0.05108281,210.90001,20.7,-8.400001,42.335293,-2.9883723,0,1,0,0,3.6796367,3.064393,FALSE,0
34824,-0.002929688,-0.0234375,-1.0317383,-0.048954356,2.031606,0.05108281,210.90001,20.7,-8.400001,42.335293,-2.9883723,0,1,0,0,3.6796367,3.064393,FALSE,0
34824,-0.002929688,-0.0234375,-1.0317383,-0.048954356,2.031606,0.05108281,210.90001,20.7,-8.400001,42.335293,-2.9883723,0,1,0,0,3.6796367,3.064393,FALSE,0
34824,-0.002929688,-0.0234375,-1.0317383,-0.048954356,2.031606,0.05108281,210.90001,20.7,-8.400001,42.335293,-2.9883723,0,1,0,0,3.6796367,3.064393,FALSE,0
34824,-0.002929688,-0.0234375,-1.0317383,-0.048954356,2.031606,0.05108281,210.90001,20.7,-8.400001,42.335293,-2.9883723,0,1,0,0,3.6796367,3.064393,FALSE,0
34824,-0.002929688,-0.0234375,-1.0317383,-0.048954356,2.031606,0.05108281,210.90001,20.7,-8.400001,42.335293,-2.9883723,0,1,0,0,3.6796367,3.064393,FALSE,0
34824,-0.002929688,-0.0234375,-1.0317383,-0.048954356,2.031606,0.05108281,210.90001,20.7,-8.400001,42.335293,-2.9883723,0,1,0,0,3.6796367,3.064393,FALSE,0
34824,-0.002929688,-0.0234375,-1.0317383,-0.048954356,2.031606,0.05108281,210.90001,20.7,-8.400001,42.335293,-2.9883723,0,1,0,0,3.6796367,3.064393,FALSE,0
34824,-0.002929688,-0.0234375,-1.0317383,-0.048954356,2.031606,0.05108281,210.90001,20.7,-8.400001,42.335293,-2.9883723,0,1,0,0,3.6796367,3.064393,FALSE,0
34824,-0.002929688,-0.0234375,-1.0317383,-0.048954356,2.031606,0.05108281,210.90001,20.7,-8.400001,42.335293,-2.9883723,0,1,0,0,3.6796367,3.064393,FALSE,0
34824,-0.002929688,-0.0234375,-1.0317383,-0.048954356,2.031606,0.05108281,210.90001,20.7,-8.400001,42.335293,-2.9883723,0,1,0,0,3.6796367,3.064393,FALSE,0
34824,-0.002929688,-0.0234375,-1.0317383,-0.048954356,2.031606,0.05108281,210.90001,20.7,-8.400001,42.335293,-2.9883723,0,1,0,0,3.6796367,3.064393,FALSE,0
34824,-0.002929688,-0.0234375,-1.0317383,-0.048954356,2.031606,0.05108281,210.90001,20.7,-8.400001,42.335293,-2.9883723,0,1,0,0,3.6796367,3.064393,FALSE,0
34824,-0.002929688,-0.0234375,-1.0317383,-0.048954356,2.031606,0.05108281,210.90001,20.7,-8.400001,42.335293,-2.9883723,0,1,0,0,3.6796367,3.064393,FALSE,0
34824,-0.004394531,-0.021484375,-1.0332031,-0.05108281,2.03267,0.050018582,210.90001,18,-9.900001,42.33235,-2.9883723,0,1,0,0,3.673762,3.064393,FALSE,0
34872,-0.004394531,-0.021484375,-1.0332031,-0.05108281,2.03267,0.050018582,210.90001,18,-9.900001,42.33235,-2.9883723,0,1,0,0,3.673762,3.064393,FALSE,0
34873,-0.004394531,-0.021484375,-1.0332031,-0.05108281,2.03267,0.050018582,210.90001,18,-9.900001,42.33235,-2.9883723,0,1,0,0,3.673762,3.064393,FALSE,0
34873,-0.004394531,-0.021484375,-1.0332031,-0.05108281,2.03267,0.050018582,210.90001,18,-9.900001,42.33235,-2.9883723,0,1,0,0,3.673762,3.064393,FALSE,0
34873,-0.004394531,-0.021484375,-1.0332031,-0.05108281,2.03267,0.050018582,210.90001,18,-9.900001,42.33235,-2.9883723,0,1,0,0,3.673762,3.064393,FALSE,0
34873,-0.004394531,-0.021484375,-1.0332031,-0.05108281,2.03267,0.050018582,210.90001,18,-9.900001,42.33235,-2.9883723,0,1,0,0,3.673762,3.064393,FALSE,0
34873,-0.004394531,-0.021484375,-1.0332031,-0.05108281,2.03267,0.050018582,210.90001,18,-9.900001,42.33235,-2.9883723,0,1,0,0,3.673762,3.064393,FALSE,0
34873,-0.004394531,-0.021484375,-1.0332031,-0.05108281,2.03267,0.050018582,210.90001,18,-9.900001,42.33235,-2.9883723,0,1,0,0,3.673762,3.064393,FALSE,0
34873,-0.004394531,-0.021484375,-1.0332031,-0.05108281,2.03267,0.050018582,210.90001,18,-9.900001,42.33235,-2.9883723,0,1,0,0,3.673762,3.064393,FALSE,0
34873,-0.004394531,-0.021484375,-1.0332031,-0.05108281,2.03267,0.050018582,210.90001,18,-9.900001,42.33235,-2.9883723,0,1,0,0,3.673762,3.064393,FALSE,0
34873,-0.004394531,-0.021484375,-1.0332031,-0.05108281,2.03267,0.050018582,210.90001,18,-9.900001,42.33235,-2.9883723,0,1,0,0,3.673762,3.064393,FALSE,0
34873,-0.004394531,-0.021484375,-1.0332031,-0.05108281,2.03267,0.050018582,210.90001,18,-9.900001,42.33235,-2.9883723,0,1,0,0,3.673762,3.064393,FALSE,0
34873,-0.004394531,-0.021484375,-1.0332031,-0.05108281,2.03267,0.050018582,210.90001,18,-9.900001,42.33235,-2.9883723,0,1,0,0,3.673762,3.064393,FALSE,0
34873,-0.004394531,-0.021484375,-1.0332031,-0.05108281,2.03267,0.050018582,210.90001,18,-9.900001,42.33235,-2.9883723,0,1,0,0,3.673762,3.064393,FALSE,0
34873,-0.004394531,-0.021484375,-1.0332031,-0.05108281,2.03267,0.050018582,210.90001,18,-9.900001,42.33235,-2.9883723,0,1,0,0,3.673762,3.064393,FALSE,0
34873,-0.004394531,-0.021484375,-1.0332031,-0.05108281,2.03267,0.050018582,210.90001,18,-9.900001,42.33235,-2.9883723,0,1,0,0,3.673762,3.064393,FALSE,0
34873,-0.004394531,-0.021484375,-1.0332031,-0.05108281,2.03267,0.050018582,210.90001,18,-9.900001,42.33235,-2.9883723,0,1,0,0,3.673762,3.064393,FALSE,0
34873,-0.004394531,-0.021484375,-1.0332031,-0.05108281,2.03267,0.050018582,210.90001,18,-9.900001,42.33235,-2.9883723,0,1,0,0,3.673762,3.064393,FALSE,0
34873,-0.004394531,-0.021484375,-1.0332031,-0.05108281,2.03267,0.050018582,210.90001,18,-9.900001,42.33235,-2.9883723,0,1,0,0,3.673762,3.064393,FALSE,0
34873,-0.004394531,-0.021484375,-1.0332031,-0.05108281,2.03267,0.050018582,210.90001,18,-9.900001,42.33235,-2.9883723,0,1,0,0,3.673762,3.064393,FALSE,0
34873,-0.004394531,-0.021484375,-1.0332031,-0.05108281,2.03267,0.050018582,210.90001,18,-9.900001,42.33235,-2.9883723,0,1,0,0,3.673762,3.064393,FALSE,0
34873,-0.004394531,-0.021484375,-1.0332031,-0.05108281,2.03267,0.050018582,210.90001,18,-9.900001,42.33235,-2.9883723,0,1,0,0,3.673762,3.064393,FALSE,0
34873,-0.004394531,-0.021484375,-1.0332031,-0.05108281,2.03267,0.050018582,210.90001,18,-9.900001,42.33235,-2.9883723,0,1,0,0,3.673762,3.064393,FALSE,0
34873,-0.004394531,-0.021484375,-1.0332031,-0.05108281,2.03267,0.050018582,210.90001,18,-9.900001,42.33235,-2.9883723,0,1,0,0,3.673762,3.064393,FALSE,0
34873,-0.004394531,-0.021484375,-1.0332031,-0.05108281,2.03267,0.050018582,210.90001,18,-9.900001,42.33235,-2.9883723,0,1,0,0,3.673762,3.064393,FALSE,0
34873,-0.004394531,-0.021484375,-1.0332031,-0.05108281,2.03267,0.050018582,210.90001,18,-9.900001,42.33235,-2.9883723,0,1,0,0,3.673762,3.064393,FALSE,0
34873,-0.004394531,-0.021484375,-1.0332031,-0.05108281,2.03267,0.050018582,210.90001,18,-9.900001,42.33235,-2.9883723,0,1,0,0,3.673762,3.064393,FALSE,0
34873,-0.004394531,-0.021484375,-1.0332031,-0.05108281,2.03267,0.050018582,210.90001,18,-9.900001,42.33235,-2.9883723,0,1,0,0,3.673762,3.064393,FALSE,0
34873,-0.004394531,-0.021484375,-1.0332031,-0.05108281,2.03267,0.050018582,210.90001,18,-9.900001,42.33235,-2.9883723,0,1,0,0,3.673762,3.064393,FALSE,0
34873,-0.004394531,-0.021484375,-1.0332031,-0.05108281,2.03267,0.050018582,210.90001,18,-9.900001,42.33235,-2.9883723,0,1,0,0,3.673762,3.064393,FALSE,0
34873,-0.004394531,-0.021484375,-1.0332031,-0.05108281,2.03267,0.050018582,210.90001,18,-9.900001,42.33235,-2.9883723,0,1,0,0,3.673762,3.064393,FALSE,0
34873,-0.004394531,-0.021484375,-1.0332031,-0.05108281,2.03267,0.050018582,210.90001,18,-9.900001,42.33235,-2.9883723,0,1,0,0,3.673762,3.064393,FALSE,0
34873,-0.004394531,-0.021484375,-1.0332031,-0.05108281,2.03267,0.050018582,210.90001,18,-9.900001,42.33235,-2.9883723,0,1,0,0,3.673762,3.064393,FALSE,0
34873,-0.004394531,-0.021484375,-1.0332031,-0.05108281,2.03267,0.050018582,210.90001,18,-9.900001,42.33235,-2.9883723,0,1,0,0,3.673762,3.064393,FALSE,0
34873,-0.004394531,-0.021484375,-1.0332031,-0.05108281,2.03267,0.050018582,210.90001,18,-9.900001,42.33235,-2.9883723,0,1,0,0,3.673762,3.064393,FALSE,0
34873,-0.004394531,-0.021484375,-1.0332031,-0.05108281,2.03267,0.050018582,210.90001,18,-9.900001,42.33235,-2.9883723,0,1,0,0,3.673762,3.064393,FALSE,0
34873,-0.004394531,-0.021484375,-1.0332031,-0.05108281,2.03267,0.050018582,210.90001,18,-9.900001,42.33235,-2.9883723,0,1,0,0,3.673762,3.064393,FALSE,0
34873,-0.004394531,-0.021484375,-1.0332031,-0.05108281,2.03267,0.050018582,210.90001,18,-9.900001,42.33235,-2.9883723,0,1,0,0,3.673762,3.064393,FALSE,0
34873,-0.004394531,-0.021484375,-1.0332031,-0.05108281,2.03267,0.050018582,210.90001,18,-9.900001,42.33235,-2.9883723,0,1,0,0,3.673762,3.064393,FALSE,0
34873,-0.004394531,-0.021484375,-1.0332031,-0.05108281,2.03267,0.050018582,210.90001,18,-9.900001,42.33235,-2.9883723,0,1,0,0,3.673762,3.064393,FALSE,0
34873,-0.004394531,-0.021484375,-1.0332031,-0.05108281,2.03267,0.050018582,210.90001,18,-9.900001,42.33235,-2.9883723,0,1,0,0,3.673762,3.064393,FALSE,0
34873,-0.004394531,-0.021484375,-1.0332031,-0.05108281,2.03267,0.050018582,210.90001,18,-9.900001,42.33235,-2.9883723,0,1,0,0,3.673762,3.064393,FALSE,0
34873,-0.004394531,-0.021484375,-1.0332031,-0.05108281,2.03267,0.050018582,210.90001,18,-9.900001,42.33235,-2.9883723,0,1,0,0,3.673762,3.064393,FALSE,0
34873,-0.005371094,-0.024414062,-1.0371094,-0.053211257,2.0305417,0.05108281,207.3,16.5,-9.3,42.32647,-2.9883723,0,1,0,0,3.6796367,3.0702677,FALSE,0
34918,-0.005371094,-0.024414062,-1.0371094,-0.053211257,2.0305417,0.05108281,207.3,16.5,-9.3,42.32647,-2.9883723,0,1,0,0,3.6796367,3.0702677,FALSE,0
34918,-0.005371094,-0.024414062,-1.0371094,-0.053211257,2.0305417,0.05108281,207.3,16.5,-9.3,42.32647,-2.9883723,0,1,0,0,3.6796367,3.0702677,FALSE,0
34918,-0.005371094,-0.024414062,-1.0371094,-0.053211257,2.0305417,0.05108281,207.3,16.5,-9.3,42.32647,-2.9883723,0,1,0,0,3.6796367,3.0702677,FALSE,0
34918,-0.005371094,-0.024414062,-1.0371094,-0.053211257,2.0305417,0.05108281,207.3,16.5,-9.3,42.32647,-2.9883723,0,1,0,0,3.6796367,3.0702677,FALSE,0
34918,-0.005371094,-0.024414062,-1.0371094,-0.053211257,2.0305417,0.05108281,207.3,16.5,-9.3,42.32647,-2.9883723,0,1,0,0,3.6796367,3.0702677,FALSE,0
34918,-0.005371094,-0.024414062,-1.0371094,-0.053211257,2.0305417,0.05108281,207.3,16.5,-9.3,42.32647,-2.9883723,0,1,0,0,3.6796367,3.0702677,FALSE,0
34919,-0.005371094,-0.024414062,-1.0371094,-0.053211257,2.0305417,0.05108281,207.3,16.5,-9.3,42.32647,-2.9883723,0,1,0,0,3.6796367,3.0702677,FALSE,0
34919,-0.005371094,-0.024414062,-1.0371094,-0.053211257,2.0305417,0.05108281,207.3,16.5,-9.3,42.32647,-2.9883723,0,1,0,0,3.6796367,3.0702677,FALSE,0
34919,-0.005371094,-0.024414062,-1.0371094,-0.053211257,2.0305417,0.05108281,207.3,16.5,-9.3,42.32647,-2.9883723,0,1,0,0,3.6796367,3.0702677,FALSE,0
34919,-0.005371094,-0.024414062,-1.0371094,-0.053211257,2.0305417,0.05108281,207.3,16.5,-9.3,42.32647,-2.9883723,0,1,0,0,3.6796367,3.0702677,FALSE,0
34919,-0.005371094,-0.024414062,-1.0371094,-0.053211257,2.0305417,0.05108281,207.3,16.5,-9.3,42.32647,-2.9883723,0,1,0,0,3.6796367,3.0702677,FALSE,0
34919,-0.005371094,-0.024414062,-1.0371094,-0.053211257,2.0305417,0.05108281,207.3,16.5,-9.3,42.32647,-2.9883723,0,1,0,0,3.6796367,3.0702677,FALSE,0
34919,-0.005371094,-0.024414062,-1.0371094,-0.053211257,2.0305417,0.05108281,207.3,16.5,-9.3,42.32647,-2.9883723,0,1,0,0,3.6796367,3.0702677,FALSE,0
34919,-0.005371094,-0.024414062,-1.0371094,-0.053211257,2.0305417,0.05108281,207.3,16.5,-9.3,42.32647,-2.9883723,0,1,0,0,3.6796367,3.0702677,FALSE,0
34919,-0.005371094,-0.024414062,-1.0371094,-0.053211257,2.0305417,0.05108281,207.3,16.5,-9.3,42.32647,-2.9883723,0,1,0,0,3.6796367,3.0702677,FALSE,0
34919,-0.005371094,-0.024414062,-1.0371094,-0.053211257,2.0305417,0.05108281,207.3,16.5,-9.3,42.32647,-2.9883723,0,1,0,0,3.6796367,3.0702677,FALSE,0
34919,-0.005371094,-0.024414062,-1.0371094,-0.053211257,2.0305417,0.05108281,207.3,16.5,-9.3,42.32647,-2.9883723,0,1,0,0,3.6796367,3.0702677,FALSE,0
34919,-0.005371094,-0.024414062,-1.0371094,-0.053211257,2.0305417,0.05108281,207.3,16.5,-9.3,42.32647,-2.9883723,0,1,0,0,3.6796367,3.0702677,FALSE,0
34919,-0.005371094,-0.024414062,-1.0371094,-0.053211257,2.0305417,0.05108281,207.3,16.5,-9.3,42.32647,-2.9883723,0,1,0,0,3.6796367,3.0702677,FALSE,0
34919,-0.005371094,-0.024414062,-1.0371094,-0.053211257,2.0305417,0.05108281,207.3,16.5,-9.3,42.32647,-2.9883723,0,1,0,0,3.6796367,3.0702677,FALSE,0
34919,-0.005371094,-0.024414062,-1.0371094,-0.053211257,2.0305417,0.05108281,207.3,16.5,-9.3,42.32647,-2.9883723,0,1,0,0,3.6796367,3.0702677,FALSE,0
34919,-0.005371094,-0.024414062,-1.0371094,-0.053211257,2.0305417,0.05108281,207.3,16.5,-9.3,42.32647,-2.9883723,0,1,0,0,3.6796367,3.0702677,FALSE,0
34919,-0.005371094,-0.024414062,-1.0371094,-0.053211257,2.0305417,0.05108281,207.3,16.5,-9.3,42.32647,-2.9883723,0,1,0,0,3.6796367,3.0702677,FALSE,0
34919,-0.005371094,-0.024414062,-1.0371094,-0.053211257,2.0305417,0.05108281,207.3,16.5,-9.3,42.32647,-2.9883723,0,1,0,0,3.6796367,3.0702677,FALSE,0
34919,-0.005371094,-0.024414062,-1.0371094,-0.053211257,2.0305417,0.05108281,207.3,16.5,-9.3,42.32647,-2.9883723,0,1,0,0,3.6796367,3.0702677,FALSE,0
34919,-0.005371094,-0.024414062,-1.0371094,-0.053211257,2.0305417,0.05108281,207.3,16.5,-9.3,42.32647,-2.9883723,0,1,0,0,3.6796367,3.0702677,FALSE,0
34919,-0.005371094,-0.024414062,-1.0371094,-0.053211257,2.0305417,0.05108281,207.3,16.5,-9.3,42.32647,-2.9883723,0,1,0,0,3.6796367,3.0702677,FALSE,0
34919,-0.005371094,-0.024414062,-1.0371094,-0.053211257,2.0305417,0.05108281,207.3,16.5,-9.3,42.32647,-2.9883723,0,1,0,0,3.6796367,3.0702677,FALSE,0
34919,-0.005371094,-0.024414062,-1.0371094,-0.053211257,2.0305417,0.05108281,207.3,16.5,-9.3,42.32647,-2.9883723,0,1,0,0,3.6796367,3.0702677,FALSE,0
34919,-0.005371094,-0.024414062,-1.0371094,-0.053211257,2.0305417,0.05108281,207.3,16.5,-9.3,42.32647,-2.9883723,0,1,0,0,3.6796367,3.0702677,FALSE,0
34919,-0.005371094,-0.024414062,-1.0371094,-0.053211257,2.0305417,0.05108281,207.3,16.5,-9.3,42.32647,-2.9883723,0,1,0,0,3.6796367,3.0702677,FALSE,0
34919,-0.005371094,-0.024414062,-1.0371094,-0.053211257,2.0305417,0.05108281,207.3,16.5,-9.3,42.32647,-2.9883723,0,1,0,0,3.6796367,3.0702677,FALSE,0
34919,-0.005371094,-0.024414062,-1.0371094,-0.053211257,2.0305417,0.05108281,207.3,16.5,-9.3,42.32647,-2.9883723,0,1,0,0,3.6796367,3.0702677,FALSE,0
34919,-0.005371094,-0.024414062,-1.0371094,-0.053211257,2.0305417,0.05108281,207.3,16.5,-9.3,42.32647,-2.9883723,0,1,0,0,3.6796367,3.0702677,FALSE,0
34919,-0.005371094,-0.024414062,-1.0371094,-0.053211257,2.0305417,0.05108281,207.3,16.5,-9.3,42.32647,-2.9883723,0,1,0,0,3.6796367,3.0702677,FALSE,0
34919,-0.005371094,-0.024414062,-1.0371094,-0.053211257,2.0305417,0.05108281,207.3,16.5,-9.3,42.32647,-2.9883723,0,1,0,0,3.6796367,3.0702677,FALSE,0
34919,-0.005371094,-0.024414062,-1.0371094,-0.053211257,2.0305417,0.05108281,207.3,16.5,-9.3,42.32647,-2.9883723,0,1,0,0,3.6796367,3.0702677,FALSE,0
34919,-0.005371094,-0.024414062,-1.0371094,-0.053211257,2.0305417,0.05108281,207.3,16.5,-9.3,42.32647,-2.9883723,0,1,0,0,3.6796367,3.0702677,FALSE,0
34919,-0.005371094,-0.024414062,-1.0371094,-0.053211257,2.0305417,0.05108281,207.3,16.5,-9.3,42.32647,-2.9883723,0,1,0,0,3.6796367,3.0702677,FALSE,0
34921,-0.005371094,-0.024414062,-1.0371094,-0.053211257,2.0305417,0.05108281,207.3,16.5,-9.3,42.32647,-2.9883723,0,1,0,0,3.6796367,3.0702677,FALSE,0
