timestamp_ms,accX,accY,accZ,omegaX,omegaY,omegaZ,magX,magY,magZ,temp,deg,duty,isStop,isCurve,isSlope,V_Lipo,V_Battery,isSlipping, slipMagnitude
43628,0.0,0.0,0.0,0.0,0.0,0.0,0.0,0.0,0.0,0.0,0.0,0.0,0,0,0,0.0,0.0,false,0.0
43628,0.0,0.0,0.0,0.0,0.0,0.0,0.0,0.0,0.0,0.0,0.0,0.0,0,0,0,0.0,0.0,false,0.0
43628,0.0,0.0,0.0,0.0,0.0,0.0,0.0,0.0,0.0,0.0,0.0,0.0,0,0,0,0.0,0.0,false,0.0
43628,0.0,0.0,0.0,0.0,0.0,0.0,0.0,0.0,0.0,0.0,0.0,0.0,0,0,0,0.0,0.0,false,0.0
43628,0.0,0.0,0.0,0.0,0.0,0.0,0.0,0.0,0.0,0.0,0.0,0.0,0,0,0,0.0,0.0,false,0.0
43628,0.0,0.0,0.0,0.0,0.0,0.0,0.0,0.0,0.0,0.0,0.0,0.0,0,0,0,0.0,0.0,false,0.0
43628,0.0,0.0,0.0,0.0,0.0,0.0,0.0,0.0,0.0,0.0,0.0,0.0,0,0,0,0.0,0.0,false,0.0
43628,0.0,0.0,0.0,0.0,0.0,0.0,0.0,0.0,0.0,0.0,0.0,0.0,0,0,0,0.0,0.0,false,0.0
43628,0.0,0.0,0.0,0.0,0.0,0.0,0.0,0.0,0.0,0.0,0.0,0.0,0,0,0,0.0,0.0,false,0.0
43628,0.0,0.0,0.0,0.0,0.0,0.0,0.0,0.0,0.0,0.0,0.0,0.0,0,0,0,0.0,0.0,false,0.0
43628,0.0,0.0,0.0,0.0,0.0,0.0,0.0,0.0,0.0,0.0,0.0,0.0,0,0,0,0.0,0.0,false,0.0
43628,0.0,0.0,0.0,0.0,0.0,0.0,0.0,0.0,0.0,0.0,0.0,0.0,0,0,0,0.0,0.0,false,0.0
43628,0.0,0.0,0.0,0.0,0.0,0.0,0.0,0.0,0.0,0.0,0.0,0.0,0,0,0,0.0,0.0,false,0.0
43628,0.0,0.0,0.0,0.0,0.0,0.0,0.0,0.0,0.0,0.0,0.0,0.0,0,0,0,0.0,0.0,false,0.0
43628,0.0,0.0,0.0,0.0,0.0,0.0,0.0,0.0,0.0,0.0,0.0,0.0,0,0,0,0.0,0.0,false,0.0
43629,0.0,0.0,0.0,0.0,0.0,0.0,0.0,0.0,0.0,0.0,0.0,0.0,0,0,0,0.0,0.0,false,0.0
43629,0.0,0.0,0.0,0.0,0.0,0.0,0.0,0.0,0.0,0.0,0.0,0.0,0,0,0,0.0,0.0,false,0.0
43629,0.0,0.0,0.0,0.0,0.0,0.0,0.0,0.0,0.0,0.0,0.0,0.0,0,0,0,0.0,0.0,false,0.0
43629,0.0,0.0,0.0,0.0,0.0,0.0,0.0,0.0,0.0,0.0,0.0,0.0,0,0,0,0.0,0.0,false,0.0
43629,0.0,0.0,0.0,0.0,0.0,0.0,0.0,0.0,0.0,0.0,0.0,0.0,0,0,0,0.0,0.0,false,0.0
43629,0.0,0.0,0.0,0.0,0.0,0.0,0.0,0.0,0.0,0.0,0.0,0.0,0,0,0,0.0,0.0,false,0.0
43629,0.0,0.0,0.0,0.0,0.0,0.0,0.0,0.0,0.0,0.0,0.0,0.0,0,0,0,0.0,0.0,false,0.0
43629,0.0,0.0,0.0,0.0,0.0,0.0,0.0,0.0,0.0,0.0,0.0,0.0,0,0,0,0.0,0.0,false,0.0
43629,0.0,0.0,0.0,0.0,0.0,0.0,0.0,0.0,0.0,0.0,0.0,0.0,0,0,0,0.0,0.0,false,0.0
43630,0.0,0.0,0.0,0.0,0.0,0.0,0.0,0.0,0.0,0.0,0.0,0.0,0,0,0,0.0,0.0,false,0.0
43630,0.0,0.0,0.0,0.0,0.0,0.0,0.0,0.0,0.0,0.0,0.0,0.0,0,0,0,0.0,0.0,false,0.0
43630,0.0,0.0,0.0,0.0,0.0,0.0,0.0,0.0,0.0,0.0,0.0,0.0,0,0,0,0.0,0.0,false,0.0
43630,0.0,0.0,0.0,0.0,0.0,0.0,0.0,0.0,0.0,0.0,0.0,0.0,0,0,0,0.0,0.0,false,0.0
43630,0.0,0.0,0.0,0.0,0.0,0.0,0.0,0.0,0.0,0.0,0.0,0.0,0,0,0,0.0,0.0,false,0.0
43630,0.0,0.0,0.0,0.0,0.0,0.0,0.0,0.0,0.0,0.0,0.0,0.0,0,0,0,0.0,0.0,false,0.0
43630,0.0,0.0,0.0,0.0,0.0,0.0,0.0,0.0,0.0,0.0,0.0,0.0,0,0,0,0.0,0.0,false,0.0
43630,0.0,0.0,0.0,0.0,0.0,0.0,0.0,0.0,0.0,0.0,0.0,0.0,0,0,0,0.0,0.0,false,0.0
43630,0.0,0.0,0.0,0.0,0.0,0.0,0.0,0.0,0.0,0.0,0.0,0.0,0,0,0,0.0,0.0,false,0.0
43630,0.0,0.0,0.0,0.0,0.0,0.0,0.0,0.0,0.0,0.0,0.0,0.0,0,0,0,0.0,0.0,false,0.0
43630,0.0,0.0,0.0,0.0,0.0,0.0,0.0,0.0,0.0,0.0,0.0,0.0,0,0,0,0.0,0.0,false,0.0
43630,0.0,0.0,0.0,0.0,0.0,0.0,0.0,0.0,0.0,0.0,0.0,0.0,0,0,0,0.0,0.0,false,0.0
43630,0.0,0.0,0.0,0.0,0.0,0.0,0.0,0.0,0.0,0.0,0.0,0.0,0,0,0,0.0,0.0,false,0.0
43630,0.0,0.0,0.0,0.0,0.0,0.0,0.0,0.0,0.0,0.0,0.0,0.0,0,0,0,0.0,0.0,false,0.0
43630,0.0,0.0,0.0,0.0,0.0,0.0,0.0,0.0,0.0,0.0,0.0,0.0,0,0,0,0.0,0.0,false,0.0
43630,0.0,0.0,0.0,0.0,0.0,0.0,0.0,0.0,0.0,0.0,0.0,0.0,0,0,0,0.0,0.0,false,0.0
43630,0.0,0.0,0.0,0.0,0.0,0.0,0.0,0.0,0.0,0.0,0.0,0.0,0,0,0,0.0,0.0,false,0.0
43630,0.0,0.0,0.0,0.0,0.0,0.0,0.0,0.0,0.0,0.0,0.0,0.0,0,0,0,0.0,0.0,false,0.0
43630,-0.010253906,-0.026367188,-1.0390625,0.31713912,-0.11919322,1.0578398,208.8,6.6000004,9.0,40.152943,15.161595,0.0,1,0,0,3.8027008,3.099565,false,0.0
43670,-0.010253906,-0.026367188,-1.0390625,0.31713912,-0.11919322,1.0578398,208.8,6.6000004,9.0,40.152943,15.161595,0.0,1,0,0,3.8027008,3.099565,false,0.0
43672,-0.010253906,-0.026367188,-1.0390625,0.31713912,-0.11919322,1.0578398,208.8,6.6000004,9.0,40.152943,15.161595,0.0,1,0,0,3.8027008,3.099565,false,0.0
43672,-0.010253906,-0.026367188,-1.0390625,0.31713912,-0.11919322,1.0578398,208.8,6.6000004,9.0,40.152943,15.161595,0.0,1,0,0,3.8027008,3.099565,false,0.0
43672,-0.010253906,-0.026367188,-1.0390625,0.31713912,-0.11919322,1.0578398,208.8,6.6000004,9.0,40.152943,15.161595,0.0,1,0,0,3.8027008,3.099565,false,0.0
43672,-0.010253906,-0.026367188,-1.0390625,0.31713912,-0.11919322,1.0578398,208.8,6.6000004,9.0,40.152943,15.161595,0.0,1,0,0,3.8027008,3.099565,false,0.0
43672,-0.010253906,-0.026367188,-1.0390625,0.31713912,-0.11919322,1.0578398,208.8,6.6000004,9.0,40.152943,15.161595,0.0,1,0,0,3.8027008,3.099565,false,0.0
43672,-0.010253906,-0.026367188,-1.0390625,0.31713912,-0.11919322,1.0578398,208.8,6.6000004,9.0,40.152943,15.161595,0.0,1,0,0,3.8027008,3.099565,false,0.0
43672,-0.010253906,-0.026367188,-1.0390625,0.31713912,-0.11919322,1.0578398,208.8,6.6000004,9.0,40.152943,15.161595,0.0,1,0,0,3.8027008,3.099565,false,0.0
43672,-0.010253906,-0.026367188,-1.0390625,0.31713912,-0.11919322,1.0578398,208.8,6.6000004,9.0,40.152943,15.161595,0.0,1,0,0,3.8027008,3.099565,false,0.0
43672,-0.010253906,-0.026367188,-1.0390625,0.31713912,-0.11919322,1.0578398,208.8,6.6000004,9.0,40.152943,15.161595,0.0,1,0,0,3.8027008,3.099565,false,0.0
43672,-0.010253906,-0.026367188,-1.0390625,0.31713912,-0.11919322,1.0578398,208.8,6.6000004,9.0,40.152943,15.161595,0.0,1,0,0,3.8027008,3.099565,false,0.0
43673,-0.010253906,-0.026367188,-1.0390625,0.31713912,-0.11919322,1.0578398,208.8,6.6000004,9.0,40.152943,15.161595,0.0,1,0,0,3.8027008,3.099565,false,0.0
43673,-0.010253906,-0.026367188,-1.0390625,0.31713912,-0.11919322,1.0578398,208.8,6.6000004,9.0,40.152943,15.161595,0.0,1,0,0,3.8027008,3.099565,false,0.0
43673,-0.010253906,-0.026367188,-1.0390625,0.31713912,-0.11919322,1.0578398,208.8,6.6000004,9.0,40.152943,15.161595,0.0,1,0,0,3.8027008,3.099565,false,0.0
43673,-0.010253906,-0.026367188,-1.0390625,0.31713912,-0.11919322,1.0578398,208.8,6.6000004,9.0,40.152943,15.161595,0.0,1,0,0,3.8027008,3.099565,false,0.0
43673,-0.010253906,-0.026367188,-1.0390625,0.31713912,-0.11919322,1.0578398,208.8,6.6000004,9.0,40.152943,15.161595,0.0,1,0,0,3.8027008,3.099565,false,0.0
43673,-0.010253906,-0.026367188,-1.0390625,0.31713912,-0.11919322,1.0578398,208.8,6.6000004,9.0,40.152943,15.161595,0.0,1,0,0,3.8027008,3.099565,false,0.0
43673,-0.010253906,-0.026367188,-1.0390625,0.31713912,-0.11919322,1.0578398,208.8,6.6000004,9.0,40.152943,15.161595,0.0,1,0,0,3.8027008,3.099565,false,0.0
43673,-0.010253906,-0.026367188,-1.0390625,0.31713912,-0.11919322,1.0578398,208.8,6.6000004,9.0,40.152943,15.161595,0.0,1,0,0,3.8027008,3.099565,false,0.0
43673,-0.010253906,-0.026367188,-1.0390625,0.31713912,-0.11919322,1.0578398,208.8,6.6000004,9.0,40.152943,15.161595,0.0,1,0,0,3.8027008,3.099565,false,0.0
43673,-0.010253906,-0.026367188,-1.0390625,0.31713912,-0.11919322,1.0578398,208.8,6.6000004,9.0,40.152943,15.161595,0.0,1,0,0,3.8027008,3.099565,false,0.0
43673,-0.010253906,-0.026367188,-1.0390625,0.31713912,-0.11919322,1.0578398,208.8,6.6000004,9.0,40.152943,15.161595,0.0,1,0,0,3.8027008,3.099565,false,0.0
43674,-0.010253906,-0.026367188,-1.0390625,0.31713912,-0.11919322,1.0578398,208.8,6.6000004,9.0,40.152943,15.161595,0.0,1,0,0,3.8027008,3.099565,false,0.0
43674,-0.010253906,-0.026367188,-1.0390625,0.31713912,-0.11919322,1.0578398,208.8,6.6000004,9.0,40.152943,15.161595,0.0,1,0,0,3.8027008,3.099565,false,0.0
43674,-0.010253906,-0.026367188,-1.0390625,0.31713912,-0.11919322,1.0578398,208.8,6.6000004,9.0,40.152943,15.161595,0.0,1,0,0,3.8027008,3.099565,false,0.0
43674,-0.010253906,-0.026367188,-1.0390625,0.31713912,-0.11919322,1.0578398,208.8,6.6000004,9.0,40.152943,15.161595,0.0,1,0,0,3.8027008,3.099565,false,0.0
43674,-0.010253906,-0.026367188,-1.0390625,0.31713912,-0.11919322,1.0578398,208.8,6.6000004,9.0,40.152943,15.161595,0.0,1,0,0,3.8027008,3.099565,false,0.0
43674,-0.010253906,-0.026367188,-1.0390625,0.31713912,-0.11919322,1.0578398,208.8,6.6000004,9.0,40.152943,15.161595,0.0,1,0,0,3.8027008,3.099565,false,0.0
43674,-0.010253906,-0.026367188,-1.0390625,0.31713912,-0.11919322,1.0578398,208.8,6.6000004,9.0,40.152943,15.161595,0.0,1,0,0,3.8027008,3.099565,false,0.0
43674,-0.010253906,-0.026367188,-1.0390625,0.31713912,-0.11919322,1.0578398,208.8,6.6000004,9.0,40.152943,15.161595,0.0,1,0,0,3.8027008,3.099565,false,0.0
43675,-0.010253906,-0.026367188,-1.0390625,0.31713912,-0.11919322,1.0578398,208.8,6.6000004,9.0,40.152943,15.161595,0.0,1,0,0,3.8027008,3.099565,false,0.0
43675,-0.010253906,-0.026367188,-1.0390625,0.31713912,-0.11919322,1.0578398,208.8,6.6000004,9.0,40.152943,15.161595,0.0,1,0,0,3.8027008,3.099565,false,0.0
43675,-0.010253906,-0.026367188,-1.0390625,0.31713912,-0.11919322,1.0578398,208.8,6.6000004,9.0,40.152943,15.161595,0.0,1,0,0,3.8027008,3.099565,false,0.0
43675,-0.010253906,-0.026367188,-1.0390625,0.31713912,-0.11919322,1.0578398,208.8,6.6000004,9.0,40.152943,15.161595,0.0,1,0,0,3.8027008,3.099565,false,0.0
43675,-0.010253906,-0.026367188,-1.0390625,0.31713912,-0.11919322,1.0578398,208.8,6.6000004,9.0,40.152943,15.161595,0.0,1,0,0,3.8027008,3.099565,false,0.0
43675,-0.010253906,-0.026367188,-1.0390625,0.31713912,-0.11919322,1.0578398,208.8,6.6000004,9.0,40.152943,15.161595,0.0,1,0,0,3.8027008,3.099565,false,0.0
43675,-0.010253906,-0.026367188,-1.0390625,0.31713912,-0.11919322,1.0578398,208.8,6.6000004,9.0,40.152943,15.161595,0.0,1,0,0,3.8027008,3.099565,false,0.0
43675,-0.010253906,-0.026367188,-1.0390625,0.31713912,-0.11919322,1.0578398,208.8,6.6000004,9.0,40.152943,15.161595,0.0,1,0,0,3.8027008,3.099565,false,0.0
43675,-0.010253906,-0.026367188,-1.0390625,0.31713912,-0.11919322,1.0578398,208.8,6.6000004,9.0,40.152943,15.161595,0.0,1,0,0,3.8027008,3.099565,false,0.0
43675,-0.010253906,-0.026367188,-1.0390625,0.31713912,-0.11919322,1.0578398,208.8,6.6000004,9.0,40.152943,15.161595,0.0,1,0,0,3.8027008,3.099565,false,0.0
43675,-0.010253906,-0.026367188,-1.0390625,0.31713912,-0.11919322,1.0578398,208.8,6.6000004,9.0,40.152943,15.161595,0.0,1,0,0,3.8027008,3.099565,false,0.0
43676,-0.010253906,-0.026367188,-1.0390625,0.31713912,-0.11919322,1.0578398,208.8,6.6000004,9.0,40.152943,15.161595,0.0,1,0,0,3.8027008,3.099565,false,0.0
43676,-0.0087890625,-0.021972656,-1.0375977,0.31607488,-0.11919322,1.0599682,208.8,8.1,8.400001,40.185295,15.161595,0.0,1,0,0,3.8085756,3.0936904,false,0.0
43726,-0.0087890625,-0.021972656,-1.0375977,0.31607488,-0.11919322,1.0599682,208.8,8.1,8.400001,40.185295,15.161595,0.0,1,0,0,3.8085756,3.0936904,false,0.0
43726,-0.0087890625,-0.021972656,-1.0375977,0.31607488,-0.11919322,1.0599682,208.8,8.1,8.400001,40.185295,15.161595,0.0,1,0,0,3.8085756,3.0936904,false,0.0
43726,-0.0087890625,-0.021972656,-1.0375977,0.31607488,-0.11919322,1.0599682,208.8,8.1,8.400001,40.185295,15.161595,0.0,1,0,0,3.8085756,3.0936904,false,0.0
43726,-0.0087890625,-0.021972656,-1.0375977,0.31607488,-0.11919322,1.0599682,208.8,8.1,8.400001,40.185295,15.161595,0.0,1,0,0,3.8085756,3.0936904,false,0.0
43726,-0.0087890625,-0.021972656,-1.0375977,0.31607488,-0.11919322,1.0599682,208.8,8.1,8.400001,40.185295,15.161595,0.0,1,0,0,3.8085756,3.0936904,false,0.0
43726,-0.0087890625,-0.021972656,-1.0375977,0.31607488,-0.11919322,1.0599682,208.8,8.1,8.400001,40.185295,15.161595,0.0,1,0,0,3.8085756,3.0936904,false,0.0
43726,-0.0087890625,-0.021972656,-1.0375977,0.31607488,-0.11919322,1.0599682,208.8,8.1,8.400001,40.185295,15.161595,0.0,1,0,0,3.8085756,3.0936904,false,0.0
43726,-0.0087890625,-0.021972656,-1.0375977,0.31607488,-0.11919322,1.0599682,208.8,8.1,8.400001,40.185295,15.161595,0.0,1,0,0,3.8085756,3.0936904,false,0.0
43726,-0.0087890625,-0.021972656,-1.0375977,0.31607488,-0.11919322,1.0599682,208.8,8.1,8.400001,40.185295,15.161595,0.0,1,0,0,3.8085756,3.0936904,false,0.0
43726,-0.0087890625,-0.021972656,-1.0375977,0.31607488,-0.11919322,1.0599682,208.8,8.1,8.400001,40.185295,15.161595,0.0,1,0,0,3.8085756,3.0936904,false,0.0
43726,-0.0087890625,-0.021972656,-1.0375977,0.31607488,-0.11919322,1.0599682,208.8,8.1,8.400001,40.185295,15.161595,0.0,1,0,0,3.8085756,3.0936904,false,0.0
43726,-0.0087890625,-0.021972656,-1.0375977,0.31607488,-0.11919322,1.0599682,208.8,8.1,8.400001,40.185295,15.161595,0.0,1,0,0,3.8085756,3.0936904,false,0.0
43727,-0.0087890625,-0.021972656,-1.0375977,0.31607488,-0.11919322,1.0599682,208.8,8.1,8.400001,40.185295,15.161595,0.0,1,0,0,3.8085756,3.0936904,false,0.0
43727,-0.0087890625,-0.021972656,-1.0375977,0.31607488,-0.11919322,1.0599682,208.8,8.1,8.400001,40.185295,15.161595,0.0,1,0,0,3.8085756,3.0936904,false,0.0
43727,-0.0087890625,-0.021972656,-1.0375977,0.31607488,-0.11919322,1.0599682,208.8,8.1,8.400001,40.185295,15.161595,0.0,1,0,0,3.8085756,3.0936904,false,0.0
43727,-0.0087890625,-0.021972656,-1.0375977,0.31607488,-0.11919322,1.0599682,208.8,8.1,8.400001,40.185295,15.161595,0.0,1,0,0,3.8085756,3.0936904,false,0.0
43727,-0.0087890625,-0.021972656,-1.0375977,0.31607488,-0.11919322,1.0599682,208.8,8.1,8.400001,40.185295,15.161595,0.0,1,0,0,3.8085756,3.0936904,false,0.0
43727,-0.0087890625,-0.021972656,-1.0375977,0.31607488,-0.11919322,1.0599682,208.8,8.1,8.400001,40.185295,15.161595,0.0,1,0,0,3.8085756,3.0936904,false,0.0
43727,-0.0087890625,-0.021972656,-1.0375977,0.31607488,-0.11919322,1.0599682,208.8,8.1,8.400001,40.185295,15.161595,0.0,1,0,0,3.8085756,3.0936904,false,0.0
43727,-0.0087890625,-0.021972656,-1.0375977,0.31607488,-0.11919322,1.0599682,208.8,8.1,8.400001,40.185295,15.161595,0.0,1,0,0,3.8085756,3.0936904,false,0.0
43727,-0.0087890625,-0.021972656,-1.0375977,0.31607488,-0.11919322,1.0599682,208.8,8.1,8.400001,40.185295,15.161595,0.0,1,0,0,3.8085756,3.0936904,false,0.0
43727,-0.0087890625,-0.021972656,-1.0375977,0.31607488,-0.11919322,1.0599682,208.8,8.1,8.400001,40.185295,15.161595,0.0,1,0,0,3.8085756,3.0936904,false,0.0
43727,-0.0087890625,-0.021972656,-1.0375977,0.31607488,-0.11919322,1.0599682,208.8,8.1,8.400001,40.185295,15.161595,0.0,1,0,0,3.8085756,3.0936904,false,0.0
43727,-0.0087890625,-0.021972656,-1.0375977,0.31607488,-0.11919322,1.0599682,208.8,8.1,8.400001,40.185295,15.161595,0.0,1,0,0,3.8085756,3.0936904,false,0.0
43727,-0.0087890625,-0.021972656,-1.0375977,0.31607488,-0.11919322,1.0599682,208.8,8.1,8.400001,40.185295,15.161595,0.0,1,0,0,3.8085756,3.0936904,false,0.0
43727,-0.0087890625,-0.021972656,-1.0375977,0.31607488,-0.11919322,1.0599682,208.8,8.1,8.400001,40.185295,15.161595,0.0,1,0,0,3.8085756,3.0936904,false,0.0
43735,-0.0087890625,-0.021972656,-1.0375977,0.31607488,-0.11919322,1.0599682,208.8,8.1,8.400001,40.185295,15.161595,0.0,1,0,0,3.8085756,3.0936904,false,0.0
43735,-0.0087890625,-0.021972656,-1.0375977,0.31607488,-0.11919322,1.0599682,208.8,8.1,8.400001,40.185295,15.161595,0.0,1,0,0,3.8085756,3.0936904,false,0.0
43735,-0.0087890625,-0.021972656,-1.0375977,0.31607488,-0.11919322,1.0599682,208.8,8.1,8.400001,40.185295,15.161595,0.0,1,0,0,3.8085756,3.0936904,false,0.0
43735,-0.0087890625,-0.021972656,-1.0375977,0.31607488,-0.11919322,1.0599682,208.8,8.1,8.400001,40.185295,15.161595,0.0,1,0,0,3.8085756,3.0936904,false,0.0
43735,-0.0087890625,-0.021972656,-1.0375977,0.31607488,-0.11919322,1.0599682,208.8,8.1,8.400001,40.185295,15.161595,0.0,1,0,0,3.8085756,3.0936904,false,0.0
43735,-0.0087890625,-0.021972656,-1.0375977,0.31607488,-0.11919322,1.0599682,208.8,8.1,8.400001,40.185295,15.161595,0.0,1,0,0,3.8085756,3.0936904,false,0.0
43735,-0.0087890625,-0.021972656,-1.0375977,0.31607488,-0.11919322,1.0599682,208.8,8.1,8.400001,40.185295,15.161595,0.0,1,0,0,3.8085756,3.0936904,false,0.0
43735,-0.0087890625,-0.021972656,-1.0375977,0.31607488,-0.11919322,1.0599682,208.8,8.1,8.400001,40.185295,15.161595,0.0,1,0,0,3.8085756,3.0936904,false,0.0
43735,-0.0087890625,-0.021972656,-1.0375977,0.31607488,-0.11919322,1.0599682,208.8,8.1,8.400001,40.185295,15.161595,0.0,1,0,0,3.8085756,3.0936904,false,0.0
43735,-0.0087890625,-0.021972656,-1.0375977,0.31607488,-0.11919322,1.0599682,208.8,8.1,8.400001,40.185295,15.161595,0.0,1,0,0,3.8085756,3.0936904,false,0.0
43735,-0.0087890625,-0.021972656,-1.0375977,0.31607488,-0.11919322,1.0599682,208.8,8.1,8.400001,40.185295,15.161595,0.0,1,0,0,3.8085756,3.0936904,false,0.0
43735,-0.0087890625,-0.021972656,-1.0375977,0.31607488,-0.11919322,1.0599682,208.8,8.1,8.400001,40.185295,15.161595,0.0,1,0,0,3.8085756,3.0936904,false,0.0
43735,-0.0087890625,-0.021972656,-1.0375977,0.31607488,-0.11919322,1.0599682,208.8,8.1,8.400001,40.185295,15.161595,0.0,1,0,0,3.8085756,3.0936904,false,0.0
43736,-0.0087890625,-0.021972656,-1.0375977,0.31607488,-0.11919322,1.0599682,208.8,8.1,8.400001,40.185295,15.161595,0.0,1,0,0,3.8085756,3.0936904,false,0.0
43736,-0.0087890625,-0.021972656,-1.0375977,0.31607488,-0.11919322,1.0599682,208.8,8.1,8.400001,40.185295,15.161595,0.0,1,0,0,3.8085756,3.0936904,false,0.0
43736,-0.0087890625,-0.021972656,-1.0375977,0.31607488,-0.11919322,1.0599682,208.8,8.1,8.400001,40.185295,15.161595,0.0,1,0,0,3.8085756,3.0936904,false,0.0
43736,-0.0087890625,-0.024902344,-1.0405273,0.31607488,-0.120257445,1.0557114,205.50002,6.3,10.8,40.17647,15.161595,0.0,1,0,0,3.8085756,3.0936904,false,0.0
43764,-0.0087890625,-0.024902344,-1.0405273,0.31607488,-0.120257445,1.0557114,205.50002,6.3,10.8,40.17647,15.161595,0.0,1,0,0,3.8085756,3.0936904,false,0.0
43764,-0.0087890625,-0.024902344,-1.0405273,0.31607488,-0.120257445,1.0557114,205.50002,6.3,10.8,40.17647,15.161595,0.0,1,0,0,3.8085756,3.0936904,false,0.0
43764,-0.0087890625,-0.024902344,-1.0405273,0.31607488,-0.120257445,1.0557114,205.50002,6.3,10.8,40.17647,15.161595,0.0,1,0,0,3.8085756,3.0936904,false,0.0
43764,-0.0087890625,-0.024902344,-1.0405273,0.31607488,-0.120257445,1.0557114,205.50002,6.3,10.8,40.17647,15.161595,0.0,1,0,0,3.8085756,3.0936904,false,0.0
43765,-0.0087890625,-0.024902344,-1.0405273,0.31607488,-0.120257445,1.0557114,205.50002,6.3,10.8,40.17647,15.161595,0.0,1,0,0,3.8085756,3.0936904,false,0.0
43765,-0.0087890625,-0.024902344,-1.0405273,0.31607488,-0.120257445,1.0557114,205.50002,6.3,10.8,40.17647,15.161595,0.0,1,0,0,3.8085756,3.0936904,false,0.0
43765,-0.0087890625,-0.024902344,-1.0405273,0.31607488,-0.120257445,1.0557114,205.50002,6.3,10.8,40.17647,15.161595,0.0,1,0,0,3.8085756,3.0936904,false,0.0
43765,-0.0087890625,-0.024902344,-1.0405273,0.31607488,-0.120257445,1.0557114,205.50002,6.3,10.8,40.17647,15.161595,0.0,1,0,0,3.8085756,3.0936904,false,0.0
43765,-0.0087890625,-0.024902344,-1.0405273,0.31607488,-0.120257445,1.0557114,205.50002,6.3,10.8,40.17647,15.161595,0.0,1,0,0,3.8085756,3.0936904,false,0.0
43765,-0.0087890625,-0.024902344,-1.0405273,0.31607488,-0.120257445,1.0557114,205.50002,6.3,10.8,40.17647,15.161595,0.0,1,0,0,3.8085756,3.0936904,false,0.0
43765,-0.0087890625,-0.024902344,-1.0405273,0.31607488,-0.120257445,1.0557114,205.50002,6.3,10.8,40.17647,15.161595,0.0,1,0,0,3.8085756,3.0936904,false,0.0
43765,-0.0087890625,-0.024902344,-1.0405273,0.31607488,-0.120257445,1.0557114,205.50002,6.3,10.8,40.17647,15.161595,0.0,1,0,0,3.8085756,3.0936904,false,0.0
43765,-0.0087890625,-0.024902344,-1.0405273,0.31607488,-0.120257445,1.0557114,205.50002,6.3,10.8,40.17647,15.161595,0.0,1,0,0,3.8085756,3.0936904,false,0.0
43765,-0.0087890625,-0.024902344,-1.0405273,0.31607488,-0.120257445,1.0557114,205.50002,6.3,10.8,40.17647,15.161595,0.0,1,0,0,3.8085756,3.0936904,false,0.0
43765,-0.0087890625,-0.024902344,-1.0405273,0.31607488,-0.120257445,1.0557114,205.50002,6.3,10.8,40.17647,15.161595,0.0,1,0,0,3.8085756,3.0936904,false,0.0
43765,-0.0087890625,-0.024902344,-1.0405273,0.31607488,-0.120257445,1.0557114,205.50002,6.3,10.8,40.17647,15.161595,0.0,1,0,0,3.8085756,3.0936904,false,0.0
43765,-0.0087890625,-0.024902344,-1.0405273,0.31607488,-0.120257445,1.0557114,205.50002,6.3,10.8,40.17647,15.161595,0.0,1,0,0,3.8085756,3.0936904,false,0.0
43765,-0.0087890625,-0.024902344,-1.0405273,0.31607488,-0.120257445,1.0557114,205.50002,6.3,10.8,40.17647,15.161595,0.0,1,0,0,3.8085756,3.0936904,false,0.0
43765,-0.0087890625,-0.024902344,-1.0405273,0.31607488,-0.120257445,1.0557114,205.50002,6.3,10.8,40.17647,15.161595,0.0,1,0,0,3.8085756,3.0936904,false,0.0
43766,-0.0087890625,-0.024902344,-1.0405273,0.31607488,-0.120257445,1.0557114,205.50002,6.3,10.8,40.17647,15.161595,0.0,1,0,0,3.8085756,3.0936904,false,0.0
43766,-0.0087890625,-0.024902344,-1.0405273,0.31607488,-0.120257445,1.0557114,205.50002,6.3,10.8,40.17647,15.161595,0.0,1,0,0,3.8085756,3.0936904,false,0.0
43766,-0.0087890625,-0.024902344,-1.0405273,0.31607488,-0.120257445,1.0557114,205.50002,6.3,10.8,40.17647,15.161595,0.0,1,0,0,3.8085756,3.0936904,false,0.0
43766,-0.0087890625,-0.024902344,-1.0405273,0.31607488,-0.120257445,1.0557114,205.50002,6.3,10.8,40.17647,15.161595,0.0,1,0,0,3.8085756,3.0936904,false,0.0
43766,-0.0087890625,-0.024902344,-1.0405273,0.31607488,-0.120257445,1.0557114,205.50002,6.3,10.8,40.17647,15.161595,0.0,1,0,0,3.8085756,3.0936904,false,0.0
43766,-0.0087890625,-0.024902344,-1.0405273,0.31607488,-0.120257445,1.0557114,205.50002,6.3,10.8,40.17647,15.161595,0.0,1,0,0,3.8085756,3.0936904,false,0.0
43766,-0.0087890625,-0.024902344,-1.0405273,0.31607488,-0.120257445,1.0557114,205.50002,6.3,10.8,40.17647,15.161595,0.0,1,0,0,3.8085756,3.0936904,false,0.0
43766,-0.0087890625,-0.024902344,-1.0405273,0.31607488,-0.120257445,1.0557114,205.50002,6.3,10.8,40.17647,15.161595,0.0,1,0,0,3.8085756,3.0936904,false,0.0
43766,-0.0087890625,-0.024902344,-1.0405273,0.31607488,-0.120257445,1.0557114,205.50002,6.3,10.8,40.17647,15.161595,0.0,1,0,0,3.8085756,3.0936904,false,0.0
43766,-0.0087890625,-0.024902344,-1.0405273,0.31607488,-0.120257445,1.0557114,205.50002,6.3,10.8,40.17647,15.161595,0.0,1,0,0,3.8085756,3.0936904,false,0.0
43766,-0.0087890625,-0.024902344,-1.0405273,0.31607488,-0.120257445,1.0557114,205.50002,6.3,10.8,40.17647,15.161595,0.0,1,0,0,3.8085756,3.0936904,false,0.0
43766,-0.0087890625,-0.024902344,-1.0405273,0.31607488,-0.120257445,1.0557114,205.50002,6.3,10.8,40.17647,15.161595,0.0,1,0,0,3.8085756,3.0936904,false,0.0
43766,-0.0087890625,-0.024902344,-1.0405273,0.31607488,-0.120257445,1.0557114,205.50002,6.3,10.8,40.17647,15.161595,0.0,1,0,0,3.8085756,3.0936904,false,0.0
43766,-0.0087890625,-0.024902344,-1.0405273,0.31607488,-0.120257445,1.0557114,205.50002,6.3,10.8,40.17647,15.161595,0.0,1,0,0,3.8085756,3.0936904,false,0.0
43766,-0.0087890625,-0.024902344,-1.0405273,0.31607488,-0.120257445,1.0557114,205.50002,6.3,10.8,40.17647,15.161595,0.0,1,0,0,3.8085756,3.0936904,false,0.0
43766,-0.0087890625,-0.024902344,-1.0405273,0.31607488,-0.120257445,1.0557114,205.50002,6.3,10.8,40.17647,15.161595,0.0,1,0,0,3.8085756,3.0936904,false,0.0
43766,-0.0087890625,-0.024902344,-1.0405273,0.31607488,-0.120257445,1.0557114,205.50002,6.3,10.8,40.17647,15.161595,0.0,1,0,0,3.8085756,3.0936904,false,0.0
43767,-0.0087890625,-0.024902344,-1.0405273,0.31607488,-0.120257445,1.0557114,205.50002,6.3,10.8,40.17647,15.161595,0.0,1,0,0,3.8085756,3.0936904,false,0.0
43767,-0.0087890625,-0.024902344,-1.0405273,0.31607488,-0.120257445,1.0557114,205.50002,6.3,10.8,40.17647,15.161595,0.0,1,0,0,3.8085756,3.0936904,false,0.0
43767,-0.0087890625,-0.024902344,-1.0405273,0.31607488,-0.120257445,1.0557114,205.50002,6.3,10.8,40.17647,15.161595,0.0,1,0,0,3.8085756,3.0936904,false,0.0
43767,-0.0087890625,-0.024902344,-1.0405273,0.31607488,-0.120257445,1.0557114,205.50002,6.3,10.8,40.17647,15.161595,0.0,1,0,0,3.8085756,3.0936904,false,0.0
43767,-0.0087890625,-0.024902344,-1.0405273,0.31607488,-0.120257445,1.0557114,205.50002,6.3,10.8,40.17647,15.161595,0.0,1,0,0,3.8085756,3.0936904,false,0.0
43767,-0.0087890625,-0.024902344,-1.0405273,0.31607488,-0.120257445,1.0557114,205.50002,6.3,10.8,40.17647,15.161595,0.0,1,0,0,3.8085756,3.0936904,false,0.0
43767,-0.009277344,-0.025878906,-1.0356445,0.31820333,-0.117064774,1.0578398,206.40001,7.5000005,10.8,40.158825,15.161595,0.0,1,0,0,3.8144503,3.0878158,false,0.0
43818,-0.009277344,-0.025878906,-1.0356445,0.31820333,-0.117064774,1.0578398,206.40001,7.5000005,10.8,40.158825,15.161595,0.0,1,0,0,3.8144503,3.0878158,false,0.0
43819,-0.009277344,-0.025878906,-1.0356445,0.31820333,-0.117064774,1.0578398,206.40001,7.5000005,10.8,40.158825,15.161595,0.0,1,0,0,3.8144503,3.0878158,false,0.0
43819,-0.009277344,-0.025878906,-1.0356445,0.31820333,-0.117064774,1.0578398,206.40001,7.5000005,10.8,40.158825,15.161595,0.0,1,0,0,3.8144503,3.0878158,false,0.0
43819,-0.009277344,-0.025878906,-1.0356445,0.31820333,-0.117064774,1.0578398,206.40001,7.5000005,10.8,40.158825,15.161595,0.0,1,0,0,3.8144503,3.0878158,false,0.0
43819,-0.009277344,-0.025878906,-1.0356445,0.31820333,-0.117064774,1.0578398,206.40001,7.5000005,10.8,40.158825,15.161595,0.0,1,0,0,3.8144503,3.0878158,false,0.0
43819,-0.009277344,-0.025878906,-1.0356445,0.31820333,-0.117064774,1.0578398,206.40001,7.5000005,10.8,40.158825,15.161595,0.0,1,0,0,3.8144503,3.0878158,false,0.0
43819,-0.009277344,-0.025878906,-1.0356445,0.31820333,-0.117064774,1.0578398,206.40001,7.5000005,10.8,40.158825,15.161595,0.0,1,0,0,3.8144503,3.0878158,false,0.0
43819,-0.009277344,-0.025878906,-1.0356445,0.31820333,-0.117064774,1.0578398,206.40001,7.5000005,10.8,40.158825,15.161595,0.0,1,0,0,3.8144503,3.0878158,false,0.0
43820,-0.009277344,-0.025878906,-1.0356445,0.31820333,-0.117064774,1.0578398,206.40001,7.5000005,10.8,40.158825,15.161595,0.0,1,0,0,3.8144503,3.0878158,false,0.0
43820,-0.009277344,-0.025878906,-1.0356445,0.31820333,-0.117064774,1.0578398,206.40001,7.5000005,10.8,40.158825,15.161595,0.0,1,0,0,3.8144503,3.0878158,false,0.0
43820,-0.009277344,-0.025878906,-1.0356445,0.31820333,-0.117064774,1.0578398,206.40001,7.5000005,10.8,40.158825,15.161595,0.0,1,0,0,3.8144503,3.0878158,false,0.0
43820,-0.009277344,-0.025878906,-1.0356445,0.31820333,-0.117064774,1.0578398,206.40001,7.5000005,10.8,40.158825,15.161595,0.0,1,0,0,3.8144503,3.0878158,false,0.0
43820,-0.009277344,-0.025878906,-1.0356445,0.31820333,-0.117064774,1.0578398,206.40001,7.5000005,10.8,40.158825,15.161595,0.0,1,0,0,3.8144503,3.0878158,false,0.0
43820,-0.009277344,-0.025878906,-1.0356445,0.31820333,-0.117064774,1.0578398,206.40001,7.5000005,10.8,40.158825,15.161595,0.0,1,0,0,3.8144503,3.0878158,false,0.0
43820,-0.009277344,-0.025878906,-1.0356445,0.31820333,-0.117064774,1.0578398,206.40001,7.5000005,10.8,40.158825,15.161595,0.0,1,0,0,3.8144503,3.0878158,false,0.0
43820,-0.009277344,-0.025878906,-1.0356445,0.31820333,-0.117064774,1.0578398,206.40001,7.5000005,10.8,40.158825,15.161595,0.0,1,0,0,3.8144503,3.0878158,false,0.0
43820,-0.009277344,-0.025878906,-1.0356445,0.31820333,-0.117064774,1.0578398,206.40001,7.5000005,10.8,40.158825,15.161595,0.0,1,0,0,3.8144503,3.0878158,false,0.0
43820,-0.009277344,-0.025878906,-1.0356445,0.31820333,-0.117064774,1.0578398,206.40001,7.5000005,10.8,40.158825,15.161595,0.0,1,0,0,3.8144503,3.0878158,false,0.0
43820,-0.009277344,-0.025878906,-1.0356445,0.31820333,-0.117064774,1.0578398,206.40001,7.5000005,10.8,40.158825,15.161595,0.0,1,0,0,3.8144503,3.0878158,false,0.0
43820,-0.009277344,-0.025878906,-1.0356445,0.31820333,-0.117064774,1.0578398,206.40001,7.5000005,10.8,40.158825,15.161595,0.0,1,0,0,3.8144503,3.0878158,false,0.0
43820,-0.009277344,-0.025878906,-1.0356445,0.31820333,-0.117064774,1.0578398,206.40001,7.5000005,10.8,40.158825,15.161595,0.0,1,0,0,3.8144503,3.0878158,false,0.0
43820,-0.009277344,-0.025878906,-1.0356445,0.31820333,-0.117064774,1.0578398,206.40001,7.5000005,10.8,40.158825,15.161595,0.0,1,0,0,3.8144503,3.0878158,false,0.0
43820,-0.009277344,-0.025878906,-1.0356445,0.31820333,-0.117064774,1.0578398,206.40001,7.5000005,10.8,40.158825,15.161595,0.0,1,0,0,3.8144503,3.0878158,false,0.0
43820,-0.009277344,-0.025878906,-1.0356445,0.31820333,-0.117064774,1.0578398,206.40001,7.5000005,10.8,40.158825,15.161595,0.0,1,0,0,3.8144503,3.0878158,false,0.0
43820,-0.009277344,-0.025878906,-1.0356445,0.31820333,-0.117064774,1.0578398,206.40001,7.5000005,10.8,40.158825,15.161595,0.0,1,0,0,3.8144503,3.0878158,false,0.0
43820,-0.009277344,-0.025878906,-1.0356445,0.31820333,-0.117064774,1.0578398,206.40001,7.5000005,10.8,40.158825,15.161595,0.0,1,0,0,3.8144503,3.0878158,false,0.0
43821,-0.009277344,-0.025878906,-1.0356445,0.31820333,-0.117064774,1.0578398,206.40001,7.5000005,10.8,40.158825,15.161595,0.0,1,0,0,3.8144503,3.0878158,false,0.0
43821,-0.009277344,-0.025878906,-1.0356445,0.31820333,-0.117064774,1.0578398,206.40001,7.5000005,10.8,40.158825,15.161595,0.0,1,0,0,3.8144503,3.0878158,false,0.0
43821,-0.009277344,-0.025878906,-1.0356445,0.31820333,-0.117064774,1.0578398,206.40001,7.5000005,10.8,40.158825,15.161595,0.0,1,0,0,3.8144503,3.0878158,false,0.0
43821,-0.009277344,-0.025878906,-1.0356445,0.31820333,-0.117064774,1.0578398,206.40001,7.5000005,10.8,40.158825,15.161595,0.0,1,0,0,3.8144503,3.0878158,false,0.0
43821,-0.009277344,-0.025878906,-1.0356445,0.31820333,-0.117064774,1.0578398,206.40001,7.5000005,10.8,40.158825,15.161595,0.0,1,0,0,3.8144503,3.0878158,false,0.0
43821,-0.009277344,-0.025878906,-1.0356445,0.31820333,-0.117064774,1.0578398,206.40001,7.5000005,10.8,40.158825,15.161595,0.0,1,0,0,3.8144503,3.0878158,false,0.0
43821,-0.009277344,-0.025878906,-1.0356445,0.31820333,-0.117064774,1.0578398,206.40001,7.5000005,10.8,40.158825,15.161595,0.0,1,0,0,3.8144503,3.0878158,false,0.0
43821,-0.009277344,-0.025878906,-1.0356445,0.31820333,-0.117064774,1.0578398,206.40001,7.5000005,10.8,40.158825,15.161595,0.0,1,0,0,3.8144503,3.0878158,false,0.0
43821,-0.009277344,-0.025878906,-1.0356445,0.31820333,-0.117064774,1.0578398,206.40001,7.5000005,10.8,40.158825,15.161595,0.0,1,0,0,3.8144503,3.0878158,false,0.0
43821,-0.009277344,-0.025878906,-1.0356445,0.31820333,-0.117064774,1.0578398,206.40001,7.5000005,10.8,40.158825,15.161595,0.0,1,0,0,3.8144503,3.0878158,false,0.0
43821,-0.009277344,-0.025878906,-1.0356445,0.31820333,-0.117064774,1.0578398,206.40001,7.5000005,10.8,40.158825,15.161595,0.0,1,0,0,3.8144503,3.0878158,false,0.0
43821,-0.009277344,-0.025878906,-1.0356445,0.31820333,-0.117064774,1.0578398,206.40001,7.5000005,10.8,40.158825,15.161595,0.0,1,0,0,3.8144503,3.0878158,false,0.0
43821,-0.009277344,-0.025878906,-1.0356445,0.31820333,-0.117064774,1.0578398,206.40001,7.5000005,10.8,40.158825,15.161595,0.0,1,0,0,3.8144503,3.0878158,false,0.0
43821,-0.009277344,-0.025878906,-1.0356445,0.31820333,-0.117064774,1.0578398,206.40001,7.5000005,10.8,40.158825,15.161595,0.0,1,0,0,3.8144503,3.0878158,false,0.0
43821,-0.009277344,-0.025878906,-1.0356445,0.31820333,-0.117064774,1.0578398,206.40001,7.5000005,10.8,40.158825,15.161595,0.0,1,0,0,3.8144503,3.0878158,false,0.0
43821,-0.009277344,-0.025878906,-1.0356445,0.31820333,-0.117064774,1.0578398,206.40001,7.5000005,10.8,40.158825,15.161595,0.0,1,0,0,3.8144503,3.0878158,false,0.0
43821,-0.0078125,-0.022460938,-1.034668,0.31607488,-0.11919322,1.0578398,209.1,7.5000005,8.1,40.152943,15.161595,0.0,1,0,0,3.8144503,3.099565,false,0.0
43866,-0.0078125,-0.022460938,-1.034668,0.31607488,-0.11919322,1.0578398,209.1,7.5000005,8.1,40.152943,15.161595,0.0,1,0,0,3.8144503,3.099565,false,0.0
43866,-0.0078125,-0.022460938,-1.034668,0.31607488,-0.11919322,1.0578398,209.1,7.5000005,8.1,40.152943,15.161595,0.0,1,0,0,3.8144503,3.099565,false,0.0
43866,-0.0078125,-0.022460938,-1.034668,0.31607488,-0.11919322,1.0578398,209.1,7.5000005,8.1,40.152943,15.161595,0.0,1,0,0,3.8144503,3.099565,false,0.0
43866,-0.0078125,-0.022460938,-1.034668,0.31607488,-0.11919322,1.0578398,209.1,7.5000005,8.1,40.152943,15.161595,0.0,1,0,0,3.8144503,3.099565,false,0.0
43866,-0.0078125,-0.022460938,-1.034668,0.31607488,-0.11919322,1.0578398,209.1,7.5000005,8.1,40.152943,15.161595,0.0,1,0,0,3.8144503,3.099565,false,0.0
43866,-0.0078125,-0.022460938,-1.034668,0.31607488,-0.11919322,1.0578398,209.1,7.5000005,8.1,40.152943,15.161595,0.0,1,0,0,3.8144503,3.099565,false,0.0
43866,-0.0078125,-0.022460938,-1.034668,0.31607488,-0.11919322,1.0578398,209.1,7.5000005,8.1,40.152943,15.161595,0.0,1,0,0,3.8144503,3.099565,false,0.0
43866,-0.0078125,-0.022460938,-1.034668,0.31607488,-0.11919322,1.0578398,209.1,7.5000005,8.1,40.152943,15.161595,0.0,1,0,0,3.8144503,3.099565,false,0.0
43866,-0.0078125,-0.022460938,-1.034668,0.31607488,-0.11919322,1.0578398,209.1,7.5000005,8.1,40.152943,15.161595,0.0,1,0,0,3.8144503,3.099565,false,0.0
43866,-0.0078125,-0.022460938,-1.034668,0.31607488,-0.11919322,1.0578398,209.1,7.5000005,8.1,40.152943,15.161595,0.0,1,0,0,3.8144503,3.099565,false,0.0
43866,-0.0078125,-0.022460938,-1.034668,0.31607488,-0.11919322,1.0578398,209.1,7.5000005,8.1,40.152943,15.161595,0.0,1,0,0,3.8144503,3.099565,false,0.0
43866,-0.0078125,-0.022460938,-1.034668,0.31607488,-0.11919322,1.0578398,209.1,7.5000005,8.1,40.152943,15.161595,0.0,1,0,0,3.8144503,3.099565,false,0.0
43866,-0.0078125,-0.022460938,-1.034668,0.31607488,-0.11919322,1.0578398,209.1,7.5000005,8.1,40.152943,15.161595,0.0,1,0,0,3.8144503,3.099565,false,0.0
43867,-0.0078125,-0.022460938,-1.034668,0.31607488,-0.11919322,1.0578398,209.1,7.5000005,8.1,40.152943,15.161595,0.0,1,0,0,3.8144503,3.099565,false,0.0
43867,-0.0078125,-0.022460938,-1.034668,0.31607488,-0.11919322,1.0578398,209.1,7.5000005,8.1,40.152943,15.161595,0.0,1,0,0,3.8144503,3.099565,false,0.0
43867,-0.0078125,-0.022460938,-1.034668,0.31607488,-0.11919322,1.0578398,209.1,7.5000005,8.1,40.152943,15.161595,0.0,1,0,0,3.8144503,3.099565,false,0.0
43867,-0.0078125,-0.022460938,-1.034668,0.31607488,-0.11919322,1.0578398,209.1,7.5000005,8.1,40.152943,15.161595,0.0,1,0,0,3.8144503,3.099565,false,0.0
43867,-0.0078125,-0.022460938,-1.034668,0.31607488,-0.11919322,1.0578398,209.1,7.5000005,8.1,40.152943,15.161595,0.0,1,0,0,3.8144503,3.099565,false,0.0
43867,-0.0078125,-0.022460938,-1.034668,0.31607488,-0.11919322,1.0578398,209.1,7.5000005,8.1,40.152943,15.161595,0.0,1,0,0,3.8144503,3.099565,false,0.0
43867,-0.0078125,-0.022460938,-1.034668,0.31607488,-0.11919322,1.0578398,209.1,7.5000005,8.1,40.152943,15.161595,0.0,1,0,0,3.8144503,3.099565,false,0.0
43867,-0.0078125,-0.022460938,-1.034668,0.31607488,-0.11919322,1.0578398,209.1,7.5000005,8.1,40.152943,15.161595,0.0,1,0,0,3.8144503,3.099565,false,0.0
43867,-0.0078125,-0.022460938,-1.034668,0.31607488,-0.11919322,1.0578398,209.1,7.5000005,8.1,40.152943,15.161595,0.0,1,0,0,3.8144503,3.099565,false,0.0
43867,-0.0078125,-0.022460938,-1.034668,0.31607488,-0.11919322,1.0578398,209.1,7.5000005,8.1,40.152943,15.161595,0.0,1,0,0,3.8144503,3.099565,false,0.0
43867,-0.0078125,-0.022460938,-1.034668,0.31607488,-0.11919322,1.0578398,209.1,7.5000005,8.1,40.152943,15.161595,0.0,1,0,0,3.8144503,3.099565,false,0.0
43867,-0.0078125,-0.022460938,-1.034668,0.31607488,-0.11919322,1.0578398,209.1,7.5000005,8.1,40.152943,15.161595,0.0,1,0,0,3.8144503,3.099565,false,0.0
43867,-0.0078125,-0.022460938,-1.034668,0.31607488,-0.11919322,1.0578398,209.1,7.5000005,8.1,40.152943,15.161595,0.0,1,0,0,3.8144503,3.099565,false,0.0
43867,-0.0078125,-0.022460938,-1.034668,0.31607488,-0.11919322,1.0578398,209.1,7.5000005,8.1,40.152943,15.161595,0.0,1,0,0,3.8144503,3.099565,false,0.0
43867,-0.0078125,-0.022460938,-1.034668,0.31607488,-0.11919322,1.0578398,209.1,7.5000005,8.1,40.152943,15.161595,0.0,1,0,0,3.8144503,3.099565,false,0.0
43867,-0.0078125,-0.022460938,-1.034668,0.31607488,-0.11919322,1.0578398,209.1,7.5000005,8.1,40.152943,15.161595,0.0,1,0,0,3.8144503,3.099565,false,0.0
43867,-0.0078125,-0.022460938,-1.034668,0.31607488,-0.11919322,1.0578398,209.1,7.5000005,8.1,40.152943,15.161595,0.0,1,0,0,3.8144503,3.099565,false,0.0
43867,-0.0078125,-0.022460938,-1.034668,0.31607488,-0.11919322,1.0578398,209.1,7.5000005,8.1,40.152943,15.161595,0.0,1,0,0,3.8144503,3.099565,false,0.0
43867,-0.0078125,-0.022460938,-1.034668,0.31607488,-0.11919322,1.0578398,209.1,7.5000005,8.1,40.152943,15.161595,0.0,1,0,0,3.8144503,3.099565,false,0.0
43867,-0.0078125,-0.022460938,-1.034668,0.31607488,-0.11919322,1.0578398,209.1,7.5000005,8.1,40.152943,15.161595,0.0,1,0,0,3.8144503,3.099565,false,0.0
43867,-0.0078125,-0.022460938,-1.034668,0.31607488,-0.11919322,1.0578398,209.1,7.5000005,8.1,40.152943,15.161595,0.0,1,0,0,3.8144503,3.099565,false,0.0
43867,-0.0078125,-0.022460938,-1.034668,0.31607488,-0.11919322,1.0578398,209.1,7.5000005,8.1,40.152943,15.161595,0.0,1,0,0,3.8144503,3.099565,false,0.0
43867,-0.0078125,-0.022460938,-1.034668,0.31607488,-0.11919322,1.0578398,209.1,7.5000005,8.1,40.152943,15.161595,0.0,1,0,0,3.8144503,3.099565,false,0.0
43867,-0.0078125,-0.022460938,-1.034668,0.31607488,-0.11919322,1.0578398,209.1,7.5000005,8.1,40.152943,15.161595,0.0,1,0,0,3.8144503,3.099565,false,0.0
43867,-0.0078125,-0.022460938,-1.034668,0.31607488,-0.11919322,1.0578398,209.1,7.5000005,8.1,40.152943,15.161595,0.0,1,0,0,3.8144503,3.099565,false,0.0
43867,-0.0078125,-0.022460938,-1.034668,0.31607488,-0.11919322,1.0578398,209.1,7.5000005,8.1,40.152943,15.161595,0.0,1,0,0,3.8144503,3.099565,false,0.0
43867,-0.0078125,-0.022460938,-1.034668,0.31607488,-0.11919322,1.0578398,209.1,7.5000005,8.1,40.152943,15.161595,0.0,1,0,0,3.8144503,3.099565,false,0.0
43868,-0.0078125,-0.022460938,-1.034668,0.31607488,-0.11919322,1.0578398,209.1,7.5000005,8.1,40.152943,15.161595,0.0,1,0,0,3.8144503,3.099565,false,0.0
43868,-0.0078125,-0.022460938,-1.034668,0.31607488,-0.11919322,1.0578398,209.1,7.5000005,8.1,40.152943,15.161595,0.0,1,0,0,3.8144503,3.099565,false,0.0
43868,-0.0063476562,-0.021484375,-1.0302734,0.31926754,-0.11812899,1.058904,205.20001,8.700001,9.900001,40.179413,15.161595,0.0,1,0,0,3.7909515,3.0878158,false,0.0
43918,-0.0063476562,-0.021484375,-1.0302734,0.31926754,-0.11812899,1.058904,205.20001,8.700001,9.900001,40.179413,15.161595,0.0,1,0,0,3.7909515,3.0878158,false,0.0
43918,-0.0063476562,-0.021484375,-1.0302734,0.31926754,-0.11812899,1.058904,205.20001,8.700001,9.900001,40.179413,15.161595,0.0,1,0,0,3.7909515,3.0878158,false,0.0
43918,-0.0063476562,-0.021484375,-1.0302734,0.31926754,-0.11812899,1.058904,205.20001,8.700001,9.900001,40.179413,15.161595,0.0,1,0,0,3.7909515,3.0878158,false,0.0
43918,-0.0063476562,-0.021484375,-1.0302734,0.31926754,-0.11812899,1.058904,205.20001,8.700001,9.900001,40.179413,15.161595,0.0,1,0,0,3.7909515,3.0878158,false,0.0
43918,-0.0063476562,-0.021484375,-1.0302734,0.31926754,-0.11812899,1.058904,205.20001,8.700001,9.900001,40.179413,15.161595,0.0,1,0,0,3.7909515,3.0878158,false,0.0
43919,-0.0063476562,-0.021484375,-1.0302734,0.31926754,-0.11812899,1.058904,205.20001,8.700001,9.900001,40.179413,15.161595,0.0,1,0,0,3.7909515,3.0878158,false,0.0
43919,-0.0063476562,-0.021484375,-1.0302734,0.31926754,-0.11812899,1.058904,205.20001,8.700001,9.900001,40.179413,15.161595,0.0,1,0,0,3.7909515,3.0878158,false,0.0
43919,-0.0063476562,-0.021484375,-1.0302734,0.31926754,-0.11812899,1.058904,205.20001,8.700001,9.900001,40.179413,15.161595,0.0,1,0,0,3.7909515,3.0878158,false,0.0
43919,-0.0063476562,-0.021484375,-1.0302734,0.31926754,-0.11812899,1.058904,205.20001,8.700001,9.900001,40.179413,15.161595,0.0,1,0,0,3.7909515,3.0878158,false,0.0
43919,-0.0063476562,-0.021484375,-1.0302734,0.31926754,-0.11812899,1.058904,205.20001,8.700001,9.900001,40.179413,15.161595,0.0,1,0,0,3.7909515,3.0878158,false,0.0
43919,-0.0063476562,-0.021484375,-1.0302734,0.31926754,-0.11812899,1.058904,205.20001,8.700001,9.900001,40.179413,15.161595,0.0,1,0,0,3.7909515,3.0878158,false,0.0
43919,-0.0063476562,-0.021484375,-1.0302734,0.31926754,-0.11812899,1.058904,205.20001,8.700001,9.900001,40.179413,15.161595,0.0,1,0,0,3.7909515,3.0878158,false,0.0
43919,-0.0063476562,-0.021484375,-1.0302734,0.31926754,-0.11812899,1.058904,205.20001,8.700001,9.900001,40.179413,15.161595,0.0,1,0,0,3.7909515,3.0878158,false,0.0
43919,-0.0063476562,-0.021484375,-1.0302734,0.31926754,-0.11812899,1.058904,205.20001,8.700001,9.900001,40.179413,15.161595,0.0,1,0,0,3.7909515,3.0878158,false,0.0
43919,-0.0063476562,-0.021484375,-1.0302734,0.31926754,-0.11812899,1.058904,205.20001,8.700001,9.900001,40.179413,15.161595,0.0,1,0,0,3.7909515,3.0878158,false,0.0
43919,-0.0063476562,-0.021484375,-1.0302734,0.31926754,-0.11812899,1.058904,205.20001,8.700001,9.900001,40.179413,15.161595,0.0,1,0,0,3.7909515,3.0878158,false,0.0
43919,-0.0063476562,-0.021484375,-1.0302734,0.31926754,-0.11812899,1.058904,205.20001,8.700001,9.900001,40.179413,15.161595,0.0,1,0,0,3.7909515,3.0878158,false,0.0
43919,-0.0063476562,-0.021484375,-1.0302734,0.31926754,-0.11812899,1.058904,205.20001,8.700001,9.900001,40.179413,15.161595,0.0,1,0,0,3.7909515,3.0878158,false,0.0
43919,-0.0063476562,-0.021484375,-1.0302734,0.31926754,-0.11812899,1.058904,205.20001,8.700001,9.900001,40.179413,15.161595,0.0,1,0,0,3.7909515,3.0878158,false,0.0
43919,-0.0063476562,-0.021484375,-1.0302734,0.31926754,-0.11812899,1.058904,205.20001,8.700001,9.900001,40.179413,15.161595,0.0,1,0,0,3.7909515,3.0878158,false,0.0
43919,-0.0063476562,-0.021484375,-1.0302734,0.31926754,-0.11812899,1.058904,205.20001,8.700001,9.900001,40.179413,15.161595,0.0,1,0,0,3.7909515,3.0878158,false,0.0
43920,-0.0063476562,-0.021484375,-1.0302734,0.31926754,-0.11812899,1.058904,205.20001,8.700001,9.900001,40.179413,15.161595,0.0,1,0,0,3.7909515,3.0878158,false,0.0
43920,-0.0063476562,-0.021484375,-1.0302734,0.31926754,-0.11812899,1.058904,205.20001,8.700001,9.900001,40.179413,15.161595,0.0,1,0,0,3.7909515,3.0878158,false,0.0
43920,-0.0063476562,-0.021484375,-1.0302734,0.31926754,-0.11812899,1.058904,205.20001,8.700001,9.900001,40.179413,15.161595,0.0,1,0,0,3.7909515,3.0878158,false,0.0
43921,-0.0063476562,-0.021484375,-1.0302734,0.31926754,-0.11812899,1.058904,205.20001,8.700001,9.900001,40.179413,15.161595,0.0,1,0,0,3.7909515,3.0878158,false,0.0
43921,-0.0063476562,-0.021484375,-1.0302734,0.31926754,-0.11812899,1.058904,205.20001,8.700001,9.900001,40.179413,15.161595,0.0,1,0,0,3.7909515,3.0878158,false,0.0
43921,-0.0063476562,-0.021484375,-1.0302734,0.31926754,-0.11812899,1.058904,205.20001,8.700001,9.900001,40.179413,15.161595,0.0,1,0,0,3.7909515,3.0878158,false,0.0
43921,-0.0063476562,-0.021484375,-1.0302734,0.31926754,-0.11812899,1.058904,205.20001,8.700001,9.900001,40.179413,15.161595,0.0,1,0,0,3.7909515,3.0878158,false,0.0
43921,-0.0063476562,-0.021484375,-1.0302734,0.31926754,-0.11812899,1.058904,205.20001,8.700001,9.900001,40.179413,15.161595,0.0,1,0,0,3.7909515,3.0878158,false,0.0
43921,-0.0063476562,-0.021484375,-1.0302734,0.31926754,-0.11812899,1.058904,205.20001,8.700001,9.900001,40.179413,15.161595,0.0,1,0,0,3.7909515,3.0878158,false,0.0
43921,-0.0063476562,-0.021484375,-1.0302734,0.31926754,-0.11812899,1.058904,205.20001,8.700001,9.900001,40.179413,15.161595,0.0,1,0,0,3.7909515,3.0878158,false,0.0
43921,-0.0063476562,-0.021484375,-1.0302734,0.31926754,-0.11812899,1.058904,205.20001,8.700001,9.900001,40.179413,15.161595,0.0,1,0,0,3.7909515,3.0878158,false,0.0
43921,-0.0063476562,-0.021484375,-1.0302734,0.31926754,-0.11812899,1.058904,205.20001,8.700001,9.900001,40.179413,15.161595,0.0,1,0,0,3.7909515,3.0878158,false,0.0
43921,-0.0063476562,-0.021484375,-1.0302734,0.31926754,-0.11812899,1.058904,205.20001,8.700001,9.900001,40.179413,15.161595,0.0,1,0,0,3.7909515,3.0878158,false,0.0
43921,-0.0063476562,-0.021484375,-1.0302734,0.31926754,-0.11812899,1.058904,205.20001,8.700001,9.900001,40.179413,15.161595,0.0,1,0,0,3.7909515,3.0878158,false,0.0
43921,-0.0063476562,-0.021484375,-1.0302734,0.31926754,-0.11812899,1.058904,205.20001,8.700001,9.900001,40.179413,15.161595,0.0,1,0,0,3.7909515,3.0878158,false,0.0
43921,-0.0063476562,-0.021484375,-1.0302734,0.31926754,-0.11812899,1.058904,205.20001,8.700001,9.900001,40.179413,15.161595,0.0,1,0,0,3.7909515,3.0878158,false,0.0
43921,-0.0063476562,-0.021484375,-1.0302734,0.31926754,-0.11812899,1.058904,205.20001,8.700001,9.900001,40.179413,15.161595,0.0,1,0,0,3.7909515,3.0878158,false,0.0
43921,-0.0063476562,-0.021484375,-1.0302734,0.31926754,-0.11812899,1.058904,205.20001,8.700001,9.900001,40.179413,15.161595,0.0,1,0,0,3.7909515,3.0878158,false,0.0
43922,-0.0063476562,-0.021484375,-1.0302734,0.31926754,-0.11812899,1.058904,205.20001,8.700001,9.900001,40.179413,15.161595,0.0,1,0,0,3.7909515,3.0878158,false,0.0
43922,-0.0063476562,-0.021484375,-1.0302734,0.31926754,-0.11812899,1.058904,205.20001,8.700001,9.900001,40.179413,15.161595,0.0,1,0,0,3.7909515,3.0878158,false,0.0
43922,-0.0063476562,-0.021484375,-1.0302734,0.31926754,-0.11812899,1.058904,205.20001,8.700001,9.900001,40.179413,15.161595,0.0,1,0,0,3.7909515,3.0878158,false,0.0
43922,-0.0107421875,-0.022949219,-1.0395508,0.31820333,-0.11919322,1.0578398,210.00002,7.5000005,9.6,40.17059,15.161595,0.0,1,0,0,3.8202486,3.0820172,false,0.0
43964,-0.0107421875,-0.022949219,-1.0395508,0.31820333,-0.11919322,1.0578398,210.00002,7.5000005,9.6,40.17059,15.161595,0.0,1,0,0,3.8202486,3.0820172,false,0.0
43964,-0.0107421875,-0.022949219,-1.0395508,0.31820333,-0.11919322,1.0578398,210.00002,7.5000005,9.6,40.17059,15.161595,0.0,1,0,0,3.8202486,3.0820172,false,0.0
43964,-0.0107421875,-0.022949219,-1.0395508,0.31820333,-0.11919322,1.0578398,210.00002,7.5000005,9.6,40.17059,15.161595,0.0,1,0,0,3.8202486,3.0820172,false,0.0
43964,-0.0107421875,-0.022949219,-1.0395508,0.31820333,-0.11919322,1.0578398,210.00002,7.5000005,9.6,40.17059,15.161595,0.0,1,0,0,3.8202486,3.0820172,false,0.0
43964,-0.0107421875,-0.022949219,-1.0395508,0.31820333,-0.11919322,1.0578398,210.00002,7.5000005,9.6,40.17059,15.161595,0.0,1,0,0,3.8202486,3.0820172,false,0.0
43964,-0.0107421875,-0.022949219,-1.0395508,0.31820333,-0.11919322,1.0578398,210.00002,7.5000005,9.6,40.17059,15.161595,0.0,1,0,0,3.8202486,3.0820172,false,0.0
43968,-0.0107421875,-0.022949219,-1.0395508,0.31820333,-0.11919322,1.0578398,210.00002,7.5000005,9.6,40.17059,15.161595,0.0,1,0,0,3.8202486,3.0820172,false,0.0
43968,-0.0107421875,-0.022949219,-1.0395508,0.31820333,-0.11919322,1.0578398,210.00002,7.5000005,9.6,40.17059,15.161595,0.0,1,0,0,3.8202486,3.0820172,false,0.0
43968,-0.0107421875,-0.022949219,-1.0395508,0.31820333,-0.11919322,1.0578398,210.00002,7.5000005,9.6,40.17059,15.161595,0.0,1,0,0,3.8202486,3.0820172,false,0.0
43968,-0.0107421875,-0.022949219,-1.0395508,0.31820333,-0.11919322,1.0578398,210.00002,7.5000005,9.6,40.17059,15.161595,0.0,1,0,0,3.8202486,3.0820172,false,0.0
43968,-0.0107421875,-0.022949219,-1.0395508,0.31820333,-0.11919322,1.0578398,210.00002,7.5000005,9.6,40.17059,15.161595,0.0,1,0,0,3.8202486,3.0820172,false,0.0
43968,-0.0107421875,-0.022949219,-1.0395508,0.31820333,-0.11919322,1.0578398,210.00002,7.5000005,9.6,40.17059,15.161595,0.0,1,0,0,3.8202486,3.0820172,false,0.0
43968,-0.0107421875,-0.022949219,-1.0395508,0.31820333,-0.11919322,1.0578398,210.00002,7.5000005,9.6,40.17059,15.161595,0.0,1,0,0,3.8202486,3.0820172,false,0.0
43968,-0.0107421875,-0.022949219,-1.0395508,0.31820333,-0.11919322,1.0578398,210.00002,7.5000005,9.6,40.17059,15.161595,0.0,1,0,0,3.8202486,3.0820172,false,0.0
43968,-0.0107421875,-0.022949219,-1.0395508,0.31820333,-0.11919322,1.0578398,210.00002,7.5000005,9.6,40.17059,15.161595,0.0,1,0,0,3.8202486,3.0820172,false,0.0
43968,-0.0107421875,-0.022949219,-1.0395508,0.31820333,-0.11919322,1.0578398,210.00002,7.5000005,9.6,40.17059,15.161595,0.0,1,0,0,3.8202486,3.0820172,false,0.0
43968,-0.0107421875,-0.022949219,-1.0395508,0.31820333,-0.11919322,1.0578398,210.00002,7.5000005,9.6,40.17059,15.161595,0.0,1,0,0,3.8202486,3.0820172,false,0.0
43968,-0.0107421875,-0.022949219,-1.0395508,0.31820333,-0.11919322,1.0578398,210.00002,7.5000005,9.6,40.17059,15.161595,0.0,1,0,0,3.8202486,3.0820172,false,0.0
43968,-0.0107421875,-0.022949219,-1.0395508,0.31820333,-0.11919322,1.0578398,210.00002,7.5000005,9.6,40.17059,15.161595,0.0,1,0,0,3.8202486,3.0820172,false,0.0
43968,-0.0107421875,-0.022949219,-1.0395508,0.31820333,-0.11919322,1.0578398,210.00002,7.5000005,9.6,40.17059,15.161595,0.0,1,0,0,3.8202486,3.0820172,false,0.0
43968,-0.0107421875,-0.022949219,-1.0395508,0.31820333,-0.11919322,1.0578398,210.00002,7.5000005,9.6,40.17059,15.161595,0.0,1,0,0,3.8202486,3.0820172,false,0.0
43968,-0.0107421875,-0.022949219,-1.0395508,0.31820333,-0.11919322,1.0578398,210.00002,7.5000005,9.6,40.17059,15.161595,0.0,1,0,0,3.8202486,3.0820172,false,0.0
43968,-0.0107421875,-0.022949219,-1.0395508,0.31820333,-0.11919322,1.0578398,210.00002,7.5000005,9.6,40.17059,15.161595,0.0,1,0,0,3.8202486,3.0820172,false,0.0
43968,-0.0107421875,-0.022949219,-1.0395508,0.31820333,-0.11919322,1.0578398,210.00002,7.5000005,9.6,40.17059,15.161595,0.0,1,0,0,3.8202486,3.0820172,false,0.0
43968,-0.0107421875,-0.022949219,-1.0395508,0.31820333,-0.11919322,1.0578398,210.00002,7.5000005,9.6,40.17059,15.161595,0.0,1,0,0,3.8202486,3.0820172,false,0.0
43968,-0.0107421875,-0.022949219,-1.0395508,0.31820333,-0.11919322,1.0578398,210.00002,7.5000005,9.6,40.17059,15.161595,0.0,1,0,0,3.8202486,3.0820172,false,0.0
43968,-0.0107421875,-0.022949219,-1.0395508,0.31820333,-0.11919322,1.0578398,210.00002,7.5000005,9.6,40.17059,15.161595,0.0,1,0,0,3.8202486,3.0820172,false,0.0
43968,-0.0107421875,-0.022949219,-1.0395508,0.31820333,-0.11919322,1.0578398,210.00002,7.5000005,9.6,40.17059,15.161595,0.0,1,0,0,3.8202486,3.0820172,false,0.0
43969,-0.0107421875,-0.022949219,-1.0395508,0.31820333,-0.11919322,1.0578398,210.00002,7.5000005,9.6,40.17059,15.161595,0.0,1,0,0,3.8202486,3.0820172,false,0.0
43969,-0.0107421875,-0.022949219,-1.0395508,0.31820333,-0.11919322,1.0578398,210.00002,7.5000005,9.6,40.17059,15.161595,0.0,1,0,0,3.8202486,3.0820172,false,0.0
43969,-0.0107421875,-0.022949219,-1.0395508,0.31820333,-0.11919322,1.0578398,210.00002,7.5000005,9.6,40.17059,15.161595,0.0,1,0,0,3.8202486,3.0820172,false,0.0
43969,-0.0107421875,-0.022949219,-1.0395508,0.31820333,-0.11919322,1.0578398,210.00002,7.5000005,9.6,40.17059,15.161595,0.0,1,0,0,3.8202486,3.0820172,false,0.0
43969,-0.0107421875,-0.022949219,-1.0395508,0.31820333,-0.11919322,1.0578398,210.00002,7.5000005,9.6,40.17059,15.161595,0.0,1,0,0,3.8202486,3.0820172,false,0.0
43969,-0.0107421875,-0.022949219,-1.0395508,0.31820333,-0.11919322,1.0578398,210.00002,7.5000005,9.6,40.17059,15.161595,0.0,1,0,0,3.8202486,3.0820172,false,0.0
43969,-0.0107421875,-0.022949219,-1.0395508,0.31820333,-0.11919322,1.0578398,210.00002,7.5000005,9.6,40.17059,15.161595,0.0,1,0,0,3.8202486,3.0820172,false,0.0
43969,-0.0107421875,-0.022949219,-1.0395508,0.31820333,-0.11919322,1.0578398,210.00002,7.5000005,9.6,40.17059,15.161595,0.0,1,0,0,3.8202486,3.0820172,false,0.0
43969,-0.0107421875,-0.022949219,-1.0395508,0.31820333,-0.11919322,1.0578398,210.00002,7.5000005,9.6,40.17059,15.161595,0.0,1,0,0,3.8202486,3.0820172,false,0.0
43969,-0.0107421875,-0.022949219,-1.0395508,0.31820333,-0.11919322,1.0578398,210.00002,7.5000005,9.6,40.17059,15.161595,0.0,1,0,0,3.8202486,3.0820172,false,0.0
43969,-0.0107421875,-0.022949219,-1.0395508,0.31820333,-0.11919322,1.0578398,210.00002,7.5000005,9.6,40.17059,15.161595,0.0,1,0,0,3.8202486,3.0820172,false,0.0
43969,-0.0107421875,-0.022949219,-1.0395508,0.31820333,-0.11919322,1.0578398,210.00002,7.5000005,9.6,40.17059,15.161595,0.0,1,0,0,3.8202486,3.0820172,false,0.0
43969,-0.0107421875,-0.022949219,-1.0395508,0.31820333,-0.11919322,1.0578398,210.00002,7.5000005,9.6,40.17059,15.161595,0.0,1,0,0,3.8202486,3.0820172,false,0.0
43969,-0.0107421875,-0.022949219,-1.0395508,0.31820333,-0.11919322,1.0578398,210.00002,7.5000005,9.6,40.17059,15.161595,0.0,1,0,0,3.8202486,3.0820172,false,0.0
43969,-0.0087890625,-0.022949219,-1.0385742,0.3139464,-0.11812899,1.0567756,207.90001,7.5000005,8.1,40.22059,15.161595,0.0,1,0,0,3.8202486,3.0878158,false,0.0
44022,-0.0087890625,-0.022949219,-1.0385742,0.3139464,-0.11812899,1.0567756,207.90001,7.5000005,8.1,40.22059,15.161595,0.0,1,0,0,3.8202486,3.0878158,false,0.0
44022,-0.0087890625,-0.022949219,-1.0385742,0.3139464,-0.11812899,1.0567756,207.90001,7.5000005,8.1,40.22059,15.161595,0.0,1,0,0,3.8202486,3.0878158,false,0.0
44022,-0.0087890625,-0.022949219,-1.0385742,0.3139464,-0.11812899,1.0567756,207.90001,7.5000005,8.1,40.22059,15.161595,0.0,1,0,0,3.8202486,3.0878158,false,0.0
44022,-0.0087890625,-0.022949219,-1.0385742,0.3139464,-0.11812899,1.0567756,207.90001,7.5000005,8.1,40.22059,15.161595,0.0,1,0,0,3.8202486,3.0878158,false,0.0
44022,-0.0087890625,-0.022949219,-1.0385742,0.3139464,-0.11812899,1.0567756,207.90001,7.5000005,8.1,40.22059,15.161595,0.0,1,0,0,3.8202486,3.0878158,false,0.0
44022,-0.0087890625,-0.022949219,-1.0385742,0.3139464,-0.11812899,1.0567756,207.90001,7.5000005,8.1,40.22059,15.161595,0.0,1,0,0,3.8202486,3.0878158,false,0.0
44022,-0.0087890625,-0.022949219,-1.0385742,0.3139464,-0.11812899,1.0567756,207.90001,7.5000005,8.1,40.22059,15.161595,0.0,1,0,0,3.8202486,3.0878158,false,0.0
44022,-0.0087890625,-0.022949219,-1.0385742,0.3139464,-0.11812899,1.0567756,207.90001,7.5000005,8.1,40.22059,15.161595,0.0,1,0,0,3.8202486,3.0878158,false,0.0
44022,-0.0087890625,-0.022949219,-1.0385742,0.3139464,-0.11812899,1.0567756,207.90001,7.5000005,8.1,40.22059,15.161595,0.0,1,0,0,3.8202486,3.0878158,false,0.0
44022,-0.0087890625,-0.022949219,-1.0385742,0.3139464,-0.11812899,1.0567756,207.90001,7.5000005,8.1,40.22059,15.161595,0.0,1,0,0,3.8202486,3.0878158,false,0.0
44022,-0.0087890625,-0.022949219,-1.0385742,0.3139464,-0.11812899,1.0567756,207.90001,7.5000005,8.1,40.22059,15.161595,0.0,1,0,0,3.8202486,3.0878158,false,0.0
44022,-0.0087890625,-0.022949219,-1.0385742,0.3139464,-0.11812899,1.0567756,207.90001,7.5000005,8.1,40.22059,15.161595,0.0,1,0,0,3.8202486,3.0878158,false,0.0
44022,-0.0087890625,-0.022949219,-1.0385742,0.3139464,-0.11812899,1.0567756,207.90001,7.5000005,8.1,40.22059,15.161595,0.0,1,0,0,3.8202486,3.0878158,false,0.0
44022,-0.0087890625,-0.022949219,-1.0385742,0.3139464,-0.11812899,1.0567756,207.90001,7.5000005,8.1,40.22059,15.161595,0.0,1,0,0,3.8202486,3.0878158,false,0.0
44022,-0.0087890625,-0.022949219,-1.0385742,0.3139464,-0.11812899,1.0567756,207.90001,7.5000005,8.1,40.22059,15.161595,0.0,1,0,0,3.8202486,3.0878158,false,0.0
44022,-0.0087890625,-0.022949219,-1.0385742,0.3139464,-0.11812899,1.0567756,207.90001,7.5000005,8.1,40.22059,15.161595,0.0,1,0,0,3.8202486,3.0878158,false,0.0
44023,-0.0087890625,-0.022949219,-1.0385742,0.3139464,-0.11812899,1.0567756,207.90001,7.5000005,8.1,40.22059,15.161595,0.0,1,0,0,3.8202486,3.0878158,false,0.0
44023,-0.0087890625,-0.022949219,-1.0385742,0.3139464,-0.11812899,1.0567756,207.90001,7.5000005,8.1,40.22059,15.161595,0.0,1,0,0,3.8202486,3.0878158,false,0.0
44023,-0.0087890625,-0.022949219,-1.0385742,0.3139464,-0.11812899,1.0567756,207.90001,7.5000005,8.1,40.22059,15.161595,0.0,1,0,0,3.8202486,3.0878158,false,0.0
44023,-0.0087890625,-0.022949219,-1.0385742,0.3139464,-0.11812899,1.0567756,207.90001,7.5000005,8.1,40.22059,15.161595,0.0,1,0,0,3.8202486,3.0878158,false,0.0
44023,-0.0087890625,-0.022949219,-1.0385742,0.3139464,-0.11812899,1.0567756,207.90001,7.5000005,8.1,40.22059,15.161595,0.0,1,0,0,3.8202486,3.0878158,false,0.0
44023,-0.0087890625,-0.022949219,-1.0385742,0.3139464,-0.11812899,1.0567756,207.90001,7.5000005,8.1,40.22059,15.161595,0.0,1,0,0,3.8202486,3.0878158,false,0.0
44023,-0.0087890625,-0.022949219,-1.0385742,0.3139464,-0.11812899,1.0567756,207.90001,7.5000005,8.1,40.22059,15.161595,0.0,1,0,0,3.8202486,3.0878158,false,0.0
44023,-0.0087890625,-0.022949219,-1.0385742,0.3139464,-0.11812899,1.0567756,207.90001,7.5000005,8.1,40.22059,15.161595,0.0,1,0,0,3.8202486,3.0878158,false,0.0
44023,-0.0087890625,-0.022949219,-1.0385742,0.3139464,-0.11812899,1.0567756,207.90001,7.5000005,8.1,40.22059,15.161595,0.0,1,0,0,3.8202486,3.0878158,false,0.0
44023,-0.0087890625,-0.022949219,-1.0385742,0.3139464,-0.11812899,1.0567756,207.90001,7.5000005,8.1,40.22059,15.161595,0.0,1,0,0,3.8202486,3.0878158,false,0.0
44023,-0.0087890625,-0.022949219,-1.0385742,0.3139464,-0.11812899,1.0567756,207.90001,7.5000005,8.1,40.22059,15.161595,0.0,1,0,0,3.8202486,3.0878158,false,0.0
44023,-0.0087890625,-0.022949219,-1.0385742,0.3139464,-0.11812899,1.0567756,207.90001,7.5000005,8.1,40.22059,15.161595,0.0,1,0,0,3.8202486,3.0878158,false,0.0
44023,-0.0087890625,-0.022949219,-1.0385742,0.3139464,-0.11812899,1.0567756,207.90001,7.5000005,8.1,40.22059,15.161595,0.0,1,0,0,3.8202486,3.0878158,false,0.0
44023,-0.0087890625,-0.022949219,-1.0385742,0.3139464,-0.11812899,1.0567756,207.90001,7.5000005,8.1,40.22059,15.161595,0.0,1,0,0,3.8202486,3.0878158,false,0.0
44023,-0.0087890625,-0.022949219,-1.0385742,0.3139464,-0.11812899,1.0567756,207.90001,7.5000005,8.1,40.22059,15.161595,0.0,1,0,0,3.8202486,3.0878158,false,0.0
44023,-0.0087890625,-0.022949219,-1.0385742,0.3139464,-0.11812899,1.0567756,207.90001,7.5000005,8.1,40.22059,15.161595,0.0,1,0,0,3.8202486,3.0878158,false,0.0
44023,-0.0087890625,-0.022949219,-1.0385742,0.3139464,-0.11812899,1.0567756,207.90001,7.5000005,8.1,40.22059,15.161595,0.0,1,0,0,3.8202486,3.0878158,false,0.0
44023,-0.0087890625,-0.022949219,-1.0385742,0.3139464,-0.11812899,1.0567756,207.90001,7.5000005,8.1,40.22059,15.161595,0.0,1,0,0,3.8202486,3.0878158,false,0.0
44023,-0.0087890625,-0.022949219,-1.0385742,0.3139464,-0.11812899,1.0567756,207.90001,7.5000005,8.1,40.22059,15.161595,0.0,1,0,0,3.8202486,3.0878158,false,0.0
44023,-0.0087890625,-0.022949219,-1.0385742,0.3139464,-0.11812899,1.0567756,207.90001,7.5000005,8.1,40.22059,15.161595,0.0,1,0,0,3.8202486,3.0878158,false,0.0
44023,-0.0087890625,-0.022949219,-1.0385742,0.3139464,-0.11812899,1.0567756,207.90001,7.5000005,8.1,40.22059,15.161595,0.0,1,0,0,3.8202486,3.0878158,false,0.0
44023,-0.0087890625,-0.022949219,-1.0385742,0.3139464,-0.11812899,1.0567756,207.90001,7.5000005,8.1,40.22059,15.161595,0.0,1,0,0,3.8202486,3.0878158,false,0.0
44024,-0.0087890625,-0.022949219,-1.0385742,0.3139464,-0.11812899,1.0567756,207.90001,7.5000005,8.1,40.22059,15.161595,0.0,1,0,0,3.8202486,3.0878158,false,0.0
44024,-0.0087890625,-0.022949219,-1.0385742,0.3139464,-0.11812899,1.0567756,207.90001,7.5000005,8.1,40.22059,15.161595,0.0,1,0,0,3.8202486,3.0878158,false,0.0
44024,-0.0087890625,-0.022949219,-1.0385742,0.3139464,-0.11812899,1.0567756,207.90001,7.5000005,8.1,40.22059,15.161595,0.0,1,0,0,3.8202486,3.0878158,false,0.0
44024,-0.0087890625,-0.022949219,-1.0385742,0.3139464,-0.11812899,1.0567756,207.90001,7.5000005,8.1,40.22059,15.161595,0.0,1,0,0,3.8202486,3.0878158,false,0.0
44024,-0.008300781,-0.020996094,-1.0400391,0.31501064,-0.11812899,1.0578398,207.00002,8.400001,10.200001,40.19412,15.161595,0.0,1,0,0,3.8027008,3.099565,false,0.0
44072,-0.008300781,-0.020996094,-1.0400391,0.31501064,-0.11812899,1.0578398,207.00002,8.400001,10.200001,40.19412,15.161595,0.0,1,0,0,3.8027008,3.099565,false,0.0
44072,-0.008300781,-0.020996094,-1.0400391,0.31501064,-0.11812899,1.0578398,207.00002,8.400001,10.200001,40.19412,15.161595,0.0,1,0,0,3.8027008,3.099565,false,0.0
44072,-0.008300781,-0.020996094,-1.0400391,0.31501064,-0.11812899,1.0578398,207.00002,8.400001,10.200001,40.19412,15.161595,0.0,1,0,0,3.8027008,3.099565,false,0.0
44072,-0.008300781,-0.020996094,-1.0400391,0.31501064,-0.11812899,1.0578398,207.00002,8.400001,10.200001,40.19412,15.161595,0.0,1,0,0,3.8027008,3.099565,false,0.0
44072,-0.008300781,-0.020996094,-1.0400391,0.31501064,-0.11812899,1.0578398,207.00002,8.400001,10.200001,40.19412,15.161595,0.0,1,0,0,3.8027008,3.099565,false,0.0
44072,-0.008300781,-0.020996094,-1.0400391,0.31501064,-0.11812899,1.0578398,207.00002,8.400001,10.200001,40.19412,15.161595,0.0,1,0,0,3.8027008,3.099565,false,0.0
44072,-0.008300781,-0.020996094,-1.0400391,0.31501064,-0.11812899,1.0578398,207.00002,8.400001,10.200001,40.19412,15.161595,0.0,1,0,0,3.8027008,3.099565,false,0.0
44072,-0.008300781,-0.020996094,-1.0400391,0.31501064,-0.11812899,1.0578398,207.00002,8.400001,10.200001,40.19412,15.161595,0.0,1,0,0,3.8027008,3.099565,false,0.0
44072,-0.008300781,-0.020996094,-1.0400391,0.31501064,-0.11812899,1.0578398,207.00002,8.400001,10.200001,40.19412,15.161595,0.0,1,0,0,3.8027008,3.099565,false,0.0
44072,-0.008300781,-0.020996094,-1.0400391,0.31501064,-0.11812899,1.0578398,207.00002,8.400001,10.200001,40.19412,15.161595,0.0,1,0,0,3.8027008,3.099565,false,0.0
44072,-0.008300781,-0.020996094,-1.0400391,0.31501064,-0.11812899,1.0578398,207.00002,8.400001,10.200001,40.19412,15.161595,0.0,1,0,0,3.8027008,3.099565,false,0.0
44072,-0.008300781,-0.020996094,-1.0400391,0.31501064,-0.11812899,1.0578398,207.00002,8.400001,10.200001,40.19412,15.161595,0.0,1,0,0,3.8027008,3.099565,false,0.0
44072,-0.008300781,-0.020996094,-1.0400391,0.31501064,-0.11812899,1.0578398,207.00002,8.400001,10.200001,40.19412,15.161595,0.0,1,0,0,3.8027008,3.099565,false,0.0
44072,-0.008300781,-0.020996094,-1.0400391,0.31501064,-0.11812899,1.0578398,207.00002,8.400001,10.200001,40.19412,15.161595,0.0,1,0,0,3.8027008,3.099565,false,0.0
44072,-0.008300781,-0.020996094,-1.0400391,0.31501064,-0.11812899,1.0578398,207.00002,8.400001,10.200001,40.19412,15.161595,0.0,1,0,0,3.8027008,3.099565,false,0.0
44072,-0.008300781,-0.020996094,-1.0400391,0.31501064,-0.11812899,1.0578398,207.00002,8.400001,10.200001,40.19412,15.161595,0.0,1,0,0,3.8027008,3.099565,false,0.0
44072,-0.008300781,-0.020996094,-1.0400391,0.31501064,-0.11812899,1.0578398,207.00002,8.400001,10.200001,40.19412,15.161595,0.0,1,0,0,3.8027008,3.099565,false,0.0
44072,-0.008300781,-0.020996094,-1.0400391,0.31501064,-0.11812899,1.0578398,207.00002,8.400001,10.200001,40.19412,15.161595,0.0,1,0,0,3.8027008,3.099565,false,0.0
44072,-0.008300781,-0.020996094,-1.0400391,0.31501064,-0.11812899,1.0578398,207.00002,8.400001,10.200001,40.19412,15.161595,0.0,1,0,0,3.8027008,3.099565,false,0.0
44073,-0.008300781,-0.020996094,-1.0400391,0.31501064,-0.11812899,1.0578398,207.00002,8.400001,10.200001,40.19412,15.161595,0.0,1,0,0,3.8027008,3.099565,false,0.0
44073,-0.008300781,-0.020996094,-1.0400391,0.31501064,-0.11812899,1.0578398,207.00002,8.400001,10.200001,40.19412,15.161595,0.0,1,0,0,3.8027008,3.099565,false,0.0
44073,-0.008300781,-0.020996094,-1.0400391,0.31501064,-0.11812899,1.0578398,207.00002,8.400001,10.200001,40.19412,15.161595,0.0,1,0,0,3.8027008,3.099565,false,0.0
44073,-0.008300781,-0.020996094,-1.0400391,0.31501064,-0.11812899,1.0578398,207.00002,8.400001,10.200001,40.19412,15.161595,0.0,1,0,0,3.8027008,3.099565,false,0.0
44073,-0.008300781,-0.020996094,-1.0400391,0.31501064,-0.11812899,1.0578398,207.00002,8.400001,10.200001,40.19412,15.161595,0.0,1,0,0,3.8027008,3.099565,false,0.0
44073,-0.008300781,-0.020996094,-1.0400391,0.31501064,-0.11812899,1.0578398,207.00002,8.400001,10.200001,40.19412,15.161595,0.0,1,0,0,3.8027008,3.099565,false,0.0
44073,-0.008300781,-0.020996094,-1.0400391,0.31501064,-0.11812899,1.0578398,207.00002,8.400001,10.200001,40.19412,15.161595,0.0,1,0,0,3.8027008,3.099565,false,0.0
44073,-0.008300781,-0.020996094,-1.0400391,0.31501064,-0.11812899,1.0578398,207.00002,8.400001,10.200001,40.19412,15.161595,0.0,1,0,0,3.8027008,3.099565,false,0.0
44073,-0.008300781,-0.020996094,-1.0400391,0.31501064,-0.11812899,1.0578398,207.00002,8.400001,10.200001,40.19412,15.161595,0.0,1,0,0,3.8027008,3.099565,false,0.0
44073,-0.008300781,-0.020996094,-1.0400391,0.31501064,-0.11812899,1.0578398,207.00002,8.400001,10.200001,40.19412,15.161595,0.0,1,0,0,3.8027008,3.099565,false,0.0
44073,-0.008300781,-0.020996094,-1.0400391,0.31501064,-0.11812899,1.0578398,207.00002,8.400001,10.200001,40.19412,15.161595,0.0,1,0,0,3.8027008,3.099565,false,0.0
44073,-0.008300781,-0.020996094,-1.0400391,0.31501064,-0.11812899,1.0578398,207.00002,8.400001,10.200001,40.19412,15.161595,0.0,1,0,0,3.8027008,3.099565,false,0.0
44073,-0.008300781,-0.020996094,-1.0400391,0.31501064,-0.11812899,1.0578398,207.00002,8.400001,10.200001,40.19412,15.161595,0.0,1,0,0,3.8027008,3.099565,false,0.0
44073,-0.008300781,-0.020996094,-1.0400391,0.31501064,-0.11812899,1.0578398,207.00002,8.400001,10.200001,40.19412,15.161595,0.0,1,0,0,3.8027008,3.099565,false,0.0
44073,-0.008300781,-0.020996094,-1.0400391,0.31501064,-0.11812899,1.0578398,207.00002,8.400001,10.200001,40.19412,15.161595,0.0,1,0,0,3.8027008,3.099565,false,0.0
44073,-0.008300781,-0.020996094,-1.0400391,0.31501064,-0.11812899,1.0578398,207.00002,8.400001,10.200001,40.19412,15.161595,0.0,1,0,0,3.8027008,3.099565,false,0.0
44073,-0.008300781,-0.020996094,-1.0400391,0.31501064,-0.11812899,1.0578398,207.00002,8.400001,10.200001,40.19412,15.161595,0.0,1,0,0,3.8027008,3.099565,false,0.0
44073,-0.008300781,-0.020996094,-1.0400391,0.31501064,-0.11812899,1.0578398,207.00002,8.400001,10.200001,40.19412,15.161595,0.0,1,0,0,3.8027008,3.099565,false,0.0
44073,-0.008300781,-0.020996094,-1.0400391,0.31501064,-0.11812899,1.0578398,207.00002,8.400001,10.200001,40.19412,15.161595,0.0,1,0,0,3.8027008,3.099565,false,0.0
44073,-0.008300781,-0.020996094,-1.0400391,0.31501064,-0.11812899,1.0578398,207.00002,8.400001,10.200001,40.19412,15.161595,0.0,1,0,0,3.8027008,3.099565,false,0.0
44073,-0.008300781,-0.020996094,-1.0400391,0.31501064,-0.11812899,1.0578398,207.00002,8.400001,10.200001,40.19412,15.161595,0.0,1,0,0,3.8027008,3.099565,false,0.0
44073,-0.008300781,-0.020996094,-1.0400391,0.31501064,-0.11812899,1.0578398,207.00002,8.400001,10.200001,40.19412,15.161595,0.0,1,0,0,3.8027008,3.099565,false,0.0
44073,-0.008300781,-0.020996094,-1.0400391,0.31501064,-0.11812899,1.0578398,207.00002,8.400001,10.200001,40.19412,15.161595,0.0,1,0,0,3.8027008,3.099565,false,0.0
44073,-0.0078125,-0.023925781,-1.0366211,0.31607488,-0.12132167,1.0578398,210.00002,9.0,8.700001,40.17059,15.161595,0.0,1,0,0,3.8144503,3.0936904,false,0.0
44125,-0.0078125,-0.023925781,-1.0366211,0.31607488,-0.12132167,1.0578398,210.00002,9.0,8.700001,40.17059,15.161595,0.0,1,0,0,3.8144503,3.0936904,false,0.0
44126,-0.0078125,-0.023925781,-1.0366211,0.31607488,-0.12132167,1.0578398,210.00002,9.0,8.700001,40.17059,15.161595,0.0,1,0,0,3.8144503,3.0936904,false,0.0
44126,-0.0078125,-0.023925781,-1.0366211,0.31607488,-0.12132167,1.0578398,210.00002,9.0,8.700001,40.17059,15.161595,0.0,1,0,0,3.8144503,3.0936904,false,0.0
44126,-0.0078125,-0.023925781,-1.0366211,0.31607488,-0.12132167,1.0578398,210.00002,9.0,8.700001,40.17059,15.161595,0.0,1,0,0,3.8144503,3.0936904,false,0.0
44126,-0.0078125,-0.023925781,-1.0366211,0.31607488,-0.12132167,1.0578398,210.00002,9.0,8.700001,40.17059,15.161595,0.0,1,0,0,3.8144503,3.0936904,false,0.0
44126,-0.0078125,-0.023925781,-1.0366211,0.31607488,-0.12132167,1.0578398,210.00002,9.0,8.700001,40.17059,15.161595,0.0,1,0,0,3.8144503,3.0936904,false,0.0
44127,-0.0078125,-0.023925781,-1.0366211,0.31607488,-0.12132167,1.0578398,210.00002,9.0,8.700001,40.17059,15.161595,0.0,1,0,0,3.8144503,3.0936904,false,0.0
44127,-0.0078125,-0.023925781,-1.0366211,0.31607488,-0.12132167,1.0578398,210.00002,9.0,8.700001,40.17059,15.161595,0.0,1,0,0,3.8144503,3.0936904,false,0.0
44127,-0.0078125,-0.023925781,-1.0366211,0.31607488,-0.12132167,1.0578398,210.00002,9.0,8.700001,40.17059,15.161595,0.0,1,0,0,3.8144503,3.0936904,false,0.0
44127,-0.0078125,-0.023925781,-1.0366211,0.31607488,-0.12132167,1.0578398,210.00002,9.0,8.700001,40.17059,15.161595,0.0,1,0,0,3.8144503,3.0936904,false,0.0
44127,-0.0078125,-0.023925781,-1.0366211,0.31607488,-0.12132167,1.0578398,210.00002,9.0,8.700001,40.17059,15.161595,0.0,1,0,0,3.8144503,3.0936904,false,0.0
44127,-0.0078125,-0.023925781,-1.0366211,0.31607488,-0.12132167,1.0578398,210.00002,9.0,8.700001,40.17059,15.161595,0.0,1,0,0,3.8144503,3.0936904,false,0.0
44127,-0.0078125,-0.023925781,-1.0366211,0.31607488,-0.12132167,1.0578398,210.00002,9.0,8.700001,40.17059,15.161595,0.0,1,0,0,3.8144503,3.0936904,false,0.0
44127,-0.0078125,-0.023925781,-1.0366211,0.31607488,-0.12132167,1.0578398,210.00002,9.0,8.700001,40.17059,15.161595,0.0,1,0,0,3.8144503,3.0936904,false,0.0
44127,-0.0078125,-0.023925781,-1.0366211,0.31607488,-0.12132167,1.0578398,210.00002,9.0,8.700001,40.17059,15.161595,0.0,1,0,0,3.8144503,3.0936904,false,0.0
44127,-0.0078125,-0.023925781,-1.0366211,0.31607488,-0.12132167,1.0578398,210.00002,9.0,8.700001,40.17059,15.161595,0.0,1,0,0,3.8144503,3.0936904,false,0.0
44127,-0.0078125,-0.023925781,-1.0366211,0.31607488,-0.12132167,1.0578398,210.00002,9.0,8.700001,40.17059,15.161595,0.0,1,0,0,3.8144503,3.0936904,false,0.0
44127,-0.0078125,-0.023925781,-1.0366211,0.31607488,-0.12132167,1.0578398,210.00002,9.0,8.700001,40.17059,15.161595,0.0,1,0,0,3.8144503,3.0936904,false,0.0
44127,-0.0078125,-0.023925781,-1.0366211,0.31607488,-0.12132167,1.0578398,210.00002,9.0,8.700001,40.17059,15.161595,0.0,1,0,0,3.8144503,3.0936904,false,0.0
44127,-0.0078125,-0.023925781,-1.0366211,0.31607488,-0.12132167,1.0578398,210.00002,9.0,8.700001,40.17059,15.161595,0.0,1,0,0,3.8144503,3.0936904,false,0.0
44127,-0.0078125,-0.023925781,-1.0366211,0.31607488,-0.12132167,1.0578398,210.00002,9.0,8.700001,40.17059,15.161595,0.0,1,0,0,3.8144503,3.0936904,false,0.0
44127,-0.0078125,-0.023925781,-1.0366211,0.31607488,-0.12132167,1.0578398,210.00002,9.0,8.700001,40.17059,15.161595,0.0,1,0,0,3.8144503,3.0936904,false,0.0
44127,-0.0078125,-0.023925781,-1.0366211,0.31607488,-0.12132167,1.0578398,210.00002,9.0,8.700001,40.17059,15.161595,0.0,1,0,0,3.8144503,3.0936904,false,0.0
44127,-0.0078125,-0.023925781,-1.0366211,0.31607488,-0.12132167,1.0578398,210.00002,9.0,8.700001,40.17059,15.161595,0.0,1,0,0,3.8144503,3.0936904,false,0.0
44127,-0.0078125,-0.023925781,-1.0366211,0.31607488,-0.12132167,1.0578398,210.00002,9.0,8.700001,40.17059,15.161595,0.0,1,0,0,3.8144503,3.0936904,false,0.0
44127,-0.0078125,-0.023925781,-1.0366211,0.31607488,-0.12132167,1.0578398,210.00002,9.0,8.700001,40.17059,15.161595,0.0,1,0,0,3.8144503,3.0936904,false,0.0
44127,-0.0078125,-0.023925781,-1.0366211,0.31607488,-0.12132167,1.0578398,210.00002,9.0,8.700001,40.17059,15.161595,0.0,1,0,0,3.8144503,3.0936904,false,0.0
44127,-0.0078125,-0.023925781,-1.0366211,0.31607488,-0.12132167,1.0578398,210.00002,9.0,8.700001,40.17059,15.161595,0.0,1,0,0,3.8144503,3.0936904,false,0.0
44127,-0.0078125,-0.023925781,-1.0366211,0.31607488,-0.12132167,1.0578398,210.00002,9.0,8.700001,40.17059,15.161595,0.0,1,0,0,3.8144503,3.0936904,false,0.0
44127,-0.0078125,-0.023925781,-1.0366211,0.31607488,-0.12132167,1.0578398,210.00002,9.0,8.700001,40.17059,15.161595,0.0,1,0,0,3.8144503,3.0936904,false,0.0
44127,-0.0078125,-0.023925781,-1.0366211,0.31607488,-0.12132167,1.0578398,210.00002,9.0,8.700001,40.17059,15.161595,0.0,1,0,0,3.8144503,3.0936904,false,0.0
44127,-0.0078125,-0.023925781,-1.0366211,0.31607488,-0.12132167,1.0578398,210.00002,9.0,8.700001,40.17059,15.161595,0.0,1,0,0,3.8144503,3.0936904,false,0.0
44127,-0.0078125,-0.023925781,-1.0366211,0.31607488,-0.12132167,1.0578398,210.00002,9.0,8.700001,40.17059,15.161595,0.0,1,0,0,3.8144503,3.0936904,false,0.0
44127,-0.0078125,-0.023925781,-1.0366211,0.31607488,-0.12132167,1.0578398,210.00002,9.0,8.700001,40.17059,15.161595,0.0,1,0,0,3.8144503,3.0936904,false,0.0
44127,-0.0078125,-0.023925781,-1.0366211,0.31607488,-0.12132167,1.0578398,210.00002,9.0,8.700001,40.17059,15.161595,0.0,1,0,0,3.8144503,3.0936904,false,0.0
44127,-0.0078125,-0.023925781,-1.0366211,0.31607488,-0.12132167,1.0578398,210.00002,9.0,8.700001,40.17059,15.161595,0.0,1,0,0,3.8144503,3.0936904,false,0.0
44127,-0.0078125,-0.023925781,-1.0366211,0.31607488,-0.12132167,1.0578398,210.00002,9.0,8.700001,40.17059,15.161595,0.0,1,0,0,3.8144503,3.0936904,false,0.0
44127,-0.0078125,-0.023925781,-1.0366211,0.31607488,-0.12132167,1.0578398,210.00002,9.0,8.700001,40.17059,15.161595,0.0,1,0,0,3.8144503,3.0936904,false,0.0
44127,-0.0078125,-0.023925781,-1.0366211,0.31607488,-0.12132167,1.0578398,210.00002,9.0,8.700001,40.17059,15.161595,0.0,1,0,0,3.8144503,3.0936904,false,0.0
44127,-0.0078125,-0.023925781,-1.0366211,0.31607488,-0.12132167,1.0578398,210.00002,9.0,8.700001,40.17059,15.161595,0.0,1,0,0,3.8144503,3.0936904,false,0.0
44127,-0.0078125,-0.023925781,-1.0366211,0.31607488,-0.12132167,1.0578398,210.00002,9.0,8.700001,40.17059,15.161595,0.0,1,0,0,3.8144503,3.0936904,false,0.0
44127,-0.0078125,-0.023925781,-1.0366211,0.31607488,-0.12132167,1.0578398,210.00002,9.0,8.700001,40.17059,15.161595,0.0,1,0,0,3.8144503,3.0936904,false,0.0
44127,-0.009765625,-0.024414062,-1.0385742,0.31607488,-0.117064774,1.058904,210.3,6.6000004,9.900001,40.17647,15.161595,0.0,1,0,0,3.8085756,3.0936904,false,0.0
44165,-0.009765625,-0.024414062,-1.0385742,0.31607488,-0.117064774,1.058904,210.3,6.6000004,9.900001,40.17647,15.161595,0.0,1,0,0,3.8085756,3.0936904,false,0.0
44165,-0.009765625,-0.024414062,-1.0385742,0.31607488,-0.117064774,1.058904,210.3,6.6000004,9.900001,40.17647,15.161595,0.0,1,0,0,3.8085756,3.0936904,false,0.0
44165,-0.009765625,-0.024414062,-1.0385742,0.31607488,-0.117064774,1.058904,210.3,6.6000004,9.900001,40.17647,15.161595,0.0,1,0,0,3.8085756,3.0936904,false,0.0
44165,-0.009765625,-0.024414062,-1.0385742,0.31607488,-0.117064774,1.058904,210.3,6.6000004,9.900001,40.17647,15.161595,0.0,1,0,0,3.8085756,3.0936904,false,0.0
44165,-0.009765625,-0.024414062,-1.0385742,0.31607488,-0.117064774,1.058904,210.3,6.6000004,9.900001,40.17647,15.161595,0.0,1,0,0,3.8085756,3.0936904,false,0.0
44165,-0.009765625,-0.024414062,-1.0385742,0.31607488,-0.117064774,1.058904,210.3,6.6000004,9.900001,40.17647,15.161595,0.0,1,0,0,3.8085756,3.0936904,false,0.0
44165,-0.009765625,-0.024414062,-1.0385742,0.31607488,-0.117064774,1.058904,210.3,6.6000004,9.900001,40.17647,15.161595,0.0,1,0,0,3.8085756,3.0936904,false,0.0
44165,-0.009765625,-0.024414062,-1.0385742,0.31607488,-0.117064774,1.058904,210.3,6.6000004,9.900001,40.17647,15.161595,0.0,1,0,0,3.8085756,3.0936904,false,0.0
44165,-0.009765625,-0.024414062,-1.0385742,0.31607488,-0.117064774,1.058904,210.3,6.6000004,9.900001,40.17647,15.161595,0.0,1,0,0,3.8085756,3.0936904,false,0.0
44165,-0.009765625,-0.024414062,-1.0385742,0.31607488,-0.117064774,1.058904,210.3,6.6000004,9.900001,40.17647,15.161595,0.0,1,0,0,3.8085756,3.0936904,false,0.0
44165,-0.009765625,-0.024414062,-1.0385742,0.31607488,-0.117064774,1.058904,210.3,6.6000004,9.900001,40.17647,15.161595,0.0,1,0,0,3.8085756,3.0936904,false,0.0
44165,-0.009765625,-0.024414062,-1.0385742,0.31607488,-0.117064774,1.058904,210.3,6.6000004,9.900001,40.17647,15.161595,0.0,1,0,0,3.8085756,3.0936904,false,0.0
44165,-0.009765625,-0.024414062,-1.0385742,0.31607488,-0.117064774,1.058904,210.3,6.6000004,9.900001,40.17647,15.161595,0.0,1,0,0,3.8085756,3.0936904,false,0.0
44165,-0.009765625,-0.024414062,-1.0385742,0.31607488,-0.117064774,1.058904,210.3,6.6000004,9.900001,40.17647,15.161595,0.0,1,0,0,3.8085756,3.0936904,false,0.0
44165,-0.009765625,-0.024414062,-1.0385742,0.31607488,-0.117064774,1.058904,210.3,6.6000004,9.900001,40.17647,15.161595,0.0,1,0,0,3.8085756,3.0936904,false,0.0
44165,-0.009765625,-0.024414062,-1.0385742,0.31607488,-0.117064774,1.058904,210.3,6.6000004,9.900001,40.17647,15.161595,0.0,1,0,0,3.8085756,3.0936904,false,0.0
44165,-0.009765625,-0.024414062,-1.0385742,0.31607488,-0.117064774,1.058904,210.3,6.6000004,9.900001,40.17647,15.161595,0.0,1,0,0,3.8085756,3.0936904,false,0.0
44165,-0.009765625,-0.024414062,-1.0385742,0.31607488,-0.117064774,1.058904,210.3,6.6000004,9.900001,40.17647,15.161595,0.0,1,0,0,3.8085756,3.0936904,false,0.0
44165,-0.009765625,-0.024414062,-1.0385742,0.31607488,-0.117064774,1.058904,210.3,6.6000004,9.900001,40.17647,15.161595,0.0,1,0,0,3.8085756,3.0936904,false,0.0
44165,-0.009765625,-0.024414062,-1.0385742,0.31607488,-0.117064774,1.058904,210.3,6.6000004,9.900001,40.17647,15.161595,0.0,1,0,0,3.8085756,3.0936904,false,0.0
44165,-0.009765625,-0.024414062,-1.0385742,0.31607488,-0.117064774,1.058904,210.3,6.6000004,9.900001,40.17647,15.161595,0.0,1,0,0,3.8085756,3.0936904,false,0.0
44165,-0.009765625,-0.024414062,-1.0385742,0.31607488,-0.117064774,1.058904,210.3,6.6000004,9.900001,40.17647,15.161595,0.0,1,0,0,3.8085756,3.0936904,false,0.0
44165,-0.009765625,-0.024414062,-1.0385742,0.31607488,-0.117064774,1.058904,210.3,6.6000004,9.900001,40.17647,15.161595,0.0,1,0,0,3.8085756,3.0936904,false,0.0
44165,-0.009765625,-0.024414062,-1.0385742,0.31607488,-0.117064774,1.058904,210.3,6.6000004,9.900001,40.17647,15.161595,0.0,1,0,0,3.8085756,3.0936904,false,0.0
44165,-0.009765625,-0.024414062,-1.0385742,0.31607488,-0.117064774,1.058904,210.3,6.6000004,9.900001,40.17647,15.161595,0.0,1,0,0,3.8085756,3.0936904,false,0.0
44165,-0.009765625,-0.024414062,-1.0385742,0.31607488,-0.117064774,1.058904,210.3,6.6000004,9.900001,40.17647,15.161595,0.0,1,0,0,3.8085756,3.0936904,false,0.0
44165,-0.009765625,-0.024414062,-1.0385742,0.31607488,-0.117064774,1.058904,210.3,6.6000004,9.900001,40.17647,15.161595,0.0,1,0,0,3.8085756,3.0936904,false,0.0
44172,-0.009765625,-0.024414062,-1.0385742,0.31607488,-0.117064774,1.058904,210.3,6.6000004,9.900001,40.17647,15.161595,0.0,1,0,0,3.8085756,3.0936904,false,0.0
44172,-0.009765625,-0.024414062,-1.0385742,0.31607488,-0.117064774,1.058904,210.3,6.6000004,9.900001,40.17647,15.161595,0.0,1,0,0,3.8085756,3.0936904,false,0.0
44172,-0.009765625,-0.024414062,-1.0385742,0.31607488,-0.117064774,1.058904,210.3,6.6000004,9.900001,40.17647,15.161595,0.0,1,0,0,3.8085756,3.0936904,false,0.0
44172,-0.009765625,-0.024414062,-1.0385742,0.31607488,-0.117064774,1.058904,210.3,6.6000004,9.900001,40.17647,15.161595,0.0,1,0,0,3.8085756,3.0936904,false,0.0
44172,-0.009765625,-0.024414062,-1.0385742,0.31607488,-0.117064774,1.058904,210.3,6.6000004,9.900001,40.17647,15.161595,0.0,1,0,0,3.8085756,3.0936904,false,0.0
44172,-0.009765625,-0.024414062,-1.0385742,0.31607488,-0.117064774,1.058904,210.3,6.6000004,9.900001,40.17647,15.161595,0.0,1,0,0,3.8085756,3.0936904,false,0.0
44172,-0.009765625,-0.024414062,-1.0385742,0.31607488,-0.117064774,1.058904,210.3,6.6000004,9.900001,40.17647,15.161595,0.0,1,0,0,3.8085756,3.0936904,false,0.0
44172,-0.009765625,-0.024414062,-1.0385742,0.31607488,-0.117064774,1.058904,210.3,6.6000004,9.900001,40.17647,15.161595,0.0,1,0,0,3.8085756,3.0936904,false,0.0
44172,-0.009765625,-0.024414062,-1.0385742,0.31607488,-0.117064774,1.058904,210.3,6.6000004,9.900001,40.17647,15.161595,0.0,1,0,0,3.8085756,3.0936904,false,0.0
44172,-0.009765625,-0.024414062,-1.0385742,0.31607488,-0.117064774,1.058904,210.3,6.6000004,9.900001,40.17647,15.161595,0.0,1,0,0,3.8085756,3.0936904,false,0.0
44172,-0.009765625,-0.024414062,-1.0385742,0.31607488,-0.117064774,1.058904,210.3,6.6000004,9.900001,40.17647,15.161595,0.0,1,0,0,3.8085756,3.0936904,false,0.0
44172,-0.009765625,-0.024414062,-1.0385742,0.31607488,-0.117064774,1.058904,210.3,6.6000004,9.900001,40.17647,15.161595,0.0,1,0,0,3.8085756,3.0936904,false,0.0
44172,-0.009765625,-0.024414062,-1.0385742,0.31607488,-0.117064774,1.058904,210.3,6.6000004,9.900001,40.17647,15.161595,0.0,1,0,0,3.8085756,3.0936904,false,0.0
44173,-0.009765625,-0.024414062,-1.0385742,0.31607488,-0.117064774,1.058904,210.3,6.6000004,9.900001,40.17647,15.161595,0.0,1,0,0,3.8085756,3.0936904,false,0.0
44173,-0.009765625,-0.024414062,-1.0385742,0.31607488,-0.117064774,1.058904,210.3,6.6000004,9.900001,40.17647,15.161595,0.0,1,0,0,3.8085756,3.0936904,false,0.0
44173,-0.011230469,-0.022949219,-1.0351562,0.31820333,-0.11812899,1.058904,208.50002,10.5,8.700001,40.19412,15.161595,0.0,1,0,0,3.8144503,3.0820172,false,0.0
44216,-0.011230469,-0.022949219,-1.0351562,0.31820333,-0.11812899,1.058904,208.50002,10.5,8.700001,40.19412,15.161595,0.0,1,0,0,3.8144503,3.0820172,false,0.0
44216,-0.011230469,-0.022949219,-1.0351562,0.31820333,-0.11812899,1.058904,208.50002,10.5,8.700001,40.19412,15.161595,0.0,1,0,0,3.8144503,3.0820172,false,0.0
44216,-0.011230469,-0.022949219,-1.0351562,0.31820333,-0.11812899,1.058904,208.50002,10.5,8.700001,40.19412,15.161595,0.0,1,0,0,3.8144503,3.0820172,false,0.0
44216,-0.011230469,-0.022949219,-1.0351562,0.31820333,-0.11812899,1.058904,208.50002,10.5,8.700001,40.19412,15.161595,0.0,1,0,0,3.8144503,3.0820172,false,0.0
44216,-0.011230469,-0.022949219,-1.0351562,0.31820333,-0.11812899,1.058904,208.50002,10.5,8.700001,40.19412,15.161595,0.0,1,0,0,3.8144503,3.0820172,false,0.0
44216,-0.011230469,-0.022949219,-1.0351562,0.31820333,-0.11812899,1.058904,208.50002,10.5,8.700001,40.19412,15.161595,0.0,1,0,0,3.8144503,3.0820172,false,0.0
44216,-0.011230469,-0.022949219,-1.0351562,0.31820333,-0.11812899,1.058904,208.50002,10.5,8.700001,40.19412,15.161595,0.0,1,0,0,3.8144503,3.0820172,false,0.0
44216,-0.011230469,-0.022949219,-1.0351562,0.31820333,-0.11812899,1.058904,208.50002,10.5,8.700001,40.19412,15.161595,0.0,1,0,0,3.8144503,3.0820172,false,0.0
44216,-0.011230469,-0.022949219,-1.0351562,0.31820333,-0.11812899,1.058904,208.50002,10.5,8.700001,40.19412,15.161595,0.0,1,0,0,3.8144503,3.0820172,false,0.0
44216,-0.011230469,-0.022949219,-1.0351562,0.31820333,-0.11812899,1.058904,208.50002,10.5,8.700001,40.19412,15.161595,0.0,1,0,0,3.8144503,3.0820172,false,0.0
44216,-0.011230469,-0.022949219,-1.0351562,0.31820333,-0.11812899,1.058904,208.50002,10.5,8.700001,40.19412,15.161595,0.0,1,0,0,3.8144503,3.0820172,false,0.0
44217,-0.011230469,-0.022949219,-1.0351562,0.31820333,-0.11812899,1.058904,208.50002,10.5,8.700001,40.19412,15.161595,0.0,1,0,0,3.8144503,3.0820172,false,0.0
44217,-0.011230469,-0.022949219,-1.0351562,0.31820333,-0.11812899,1.058904,208.50002,10.5,8.700001,40.19412,15.161595,0.0,1,0,0,3.8144503,3.0820172,false,0.0
44217,-0.011230469,-0.022949219,-1.0351562,0.31820333,-0.11812899,1.058904,208.50002,10.5,8.700001,40.19412,15.161595,0.0,1,0,0,3.8144503,3.0820172,false,0.0
44217,-0.011230469,-0.022949219,-1.0351562,0.31820333,-0.11812899,1.058904,208.50002,10.5,8.700001,40.19412,15.161595,0.0,1,0,0,3.8144503,3.0820172,false,0.0
44217,-0.011230469,-0.022949219,-1.0351562,0.31820333,-0.11812899,1.058904,208.50002,10.5,8.700001,40.19412,15.161595,0.0,1,0,0,3.8144503,3.0820172,false,0.0
44217,-0.011230469,-0.022949219,-1.0351562,0.31820333,-0.11812899,1.058904,208.50002,10.5,8.700001,40.19412,15.161595,0.0,1,0,0,3.8144503,3.0820172,false,0.0
44217,-0.011230469,-0.022949219,-1.0351562,0.31820333,-0.11812899,1.058904,208.50002,10.5,8.700001,40.19412,15.161595,0.0,1,0,0,3.8144503,3.0820172,false,0.0
44217,-0.011230469,-0.022949219,-1.0351562,0.31820333,-0.11812899,1.058904,208.50002,10.5,8.700001,40.19412,15.161595,0.0,1,0,0,3.8144503,3.0820172,false,0.0
44217,-0.011230469,-0.022949219,-1.0351562,0.31820333,-0.11812899,1.058904,208.50002,10.5,8.700001,40.19412,15.161595,0.0,1,0,0,3.8144503,3.0820172,false,0.0
44217,-0.011230469,-0.022949219,-1.0351562,0.31820333,-0.11812899,1.058904,208.50002,10.5,8.700001,40.19412,15.161595,0.0,1,0,0,3.8144503,3.0820172,false,0.0
44217,-0.011230469,-0.022949219,-1.0351562,0.31820333,-0.11812899,1.058904,208.50002,10.5,8.700001,40.19412,15.161595,0.0,1,0,0,3.8144503,3.0820172,false,0.0
44217,-0.011230469,-0.022949219,-1.0351562,0.31820333,-0.11812899,1.058904,208.50002,10.5,8.700001,40.19412,15.161595,0.0,1,0,0,3.8144503,3.0820172,false,0.0
44217,-0.011230469,-0.022949219,-1.0351562,0.31820333,-0.11812899,1.058904,208.50002,10.5,8.700001,40.19412,15.161595,0.0,1,0,0,3.8144503,3.0820172,false,0.0
44217,-0.011230469,-0.022949219,-1.0351562,0.31820333,-0.11812899,1.058904,208.50002,10.5,8.700001,40.19412,15.161595,0.0,1,0,0,3.8144503,3.0820172,false,0.0
44217,-0.011230469,-0.022949219,-1.0351562,0.31820333,-0.11812899,1.058904,208.50002,10.5,8.700001,40.19412,15.161595,0.0,1,0,0,3.8144503,3.0820172,false,0.0
44217,-0.011230469,-0.022949219,-1.0351562,0.31820333,-0.11812899,1.058904,208.50002,10.5,8.700001,40.19412,15.161595,0.0,1,0,0,3.8144503,3.0820172,false,0.0
44217,-0.011230469,-0.022949219,-1.0351562,0.31820333,-0.11812899,1.058904,208.50002,10.5,8.700001,40.19412,15.161595,0.0,1,0,0,3.8144503,3.0820172,false,0.0
44217,-0.011230469,-0.022949219,-1.0351562,0.31820333,-0.11812899,1.058904,208.50002,10.5,8.700001,40.19412,15.161595,0.0,1,0,0,3.8144503,3.0820172,false,0.0
44217,-0.011230469,-0.022949219,-1.0351562,0.31820333,-0.11812899,1.058904,208.50002,10.5,8.700001,40.19412,15.161595,0.0,1,0,0,3.8144503,3.0820172,false,0.0
44217,-0.011230469,-0.022949219,-1.0351562,0.31820333,-0.11812899,1.058904,208.50002,10.5,8.700001,40.19412,15.161595,0.0,1,0,0,3.8144503,3.0820172,false,0.0
44217,-0.011230469,-0.022949219,-1.0351562,0.31820333,-0.11812899,1.058904,208.50002,10.5,8.700001,40.19412,15.161595,0.0,1,0,0,3.8144503,3.0820172,false,0.0
44217,-0.011230469,-0.022949219,-1.0351562,0.31820333,-0.11812899,1.058904,208.50002,10.5,8.700001,40.19412,15.161595,0.0,1,0,0,3.8144503,3.0820172,false,0.0
44217,-0.011230469,-0.022949219,-1.0351562,0.31820333,-0.11812899,1.058904,208.50002,10.5,8.700001,40.19412,15.161595,0.0,1,0,0,3.8144503,3.0820172,false,0.0
44217,-0.011230469,-0.022949219,-1.0351562,0.31820333,-0.11812899,1.058904,208.50002,10.5,8.700001,40.19412,15.161595,0.0,1,0,0,3.8144503,3.0820172,false,0.0
44217,-0.011230469,-0.022949219,-1.0351562,0.31820333,-0.11812899,1.058904,208.50002,10.5,8.700001,40.19412,15.161595,0.0,1,0,0,3.8144503,3.0820172,false,0.0
44217,-0.011230469,-0.022949219,-1.0351562,0.31820333,-0.11812899,1.058904,208.50002,10.5,8.700001,40.19412,15.161595,0.0,1,0,0,3.8144503,3.0820172,false,0.0
44225,-0.011230469,-0.022949219,-1.0351562,0.31820333,-0.11812899,1.058904,208.50002,10.5,8.700001,40.19412,15.161595,0.0,1,0,0,3.8144503,3.0820172,false,0.0
44225,-0.011230469,-0.022949219,-1.0351562,0.31820333,-0.11812899,1.058904,208.50002,10.5,8.700001,40.19412,15.161595,0.0,1,0,0,3.8144503,3.0820172,false,0.0
44225,-0.011230469,-0.022949219,-1.0351562,0.31820333,-0.11812899,1.058904,208.50002,10.5,8.700001,40.19412,15.161595,0.0,1,0,0,3.8144503,3.0820172,false,0.0
44225,-0.011230469,-0.022949219,-1.0351562,0.31820333,-0.11812899,1.058904,208.50002,10.5,8.700001,40.19412,15.161595,0.0,1,0,0,3.8144503,3.0820172,false,0.0
44225,-0.011230469,-0.022949219,-1.0351562,0.31820333,-0.11812899,1.058904,208.50002,10.5,8.700001,40.19412,15.161595,0.0,1,0,0,3.8144503,3.0820172,false,0.0
44225,-0.008300781,-0.021972656,-1.0380859,0.31820333,-0.11919322,1.0567756,206.70001,7.2000003,10.5,40.16765,15.161595,0.0,1,0,0,3.8085756,3.0820172,false,0.0
44268,-0.008300781,-0.021972656,-1.0380859,0.31820333,-0.11919322,1.0567756,206.70001,7.2000003,10.5,40.16765,15.161595,0.0,1,0,0,3.8085756,3.0820172,false,0.0
44268,-0.008300781,-0.021972656,-1.0380859,0.31820333,-0.11919322,1.0567756,206.70001,7.2000003,10.5,40.16765,15.161595,0.0,1,0,0,3.8085756,3.0820172,false,0.0
44268,-0.008300781,-0.021972656,-1.0380859,0.31820333,-0.11919322,1.0567756,206.70001,7.2000003,10.5,40.16765,15.161595,0.0,1,0,0,3.8085756,3.0820172,false,0.0
44268,-0.008300781,-0.021972656,-1.0380859,0.31820333,-0.11919322,1.0567756,206.70001,7.2000003,10.5,40.16765,15.161595,0.0,1,0,0,3.8085756,3.0820172,false,0.0
44268,-0.008300781,-0.021972656,-1.0380859,0.31820333,-0.11919322,1.0567756,206.70001,7.2000003,10.5,40.16765,15.161595,0.0,1,0,0,3.8085756,3.0820172,false,0.0
44268,-0.008300781,-0.021972656,-1.0380859,0.31820333,-0.11919322,1.0567756,206.70001,7.2000003,10.5,40.16765,15.161595,0.0,1,0,0,3.8085756,3.0820172,false,0.0
44268,-0.008300781,-0.021972656,-1.0380859,0.31820333,-0.11919322,1.0567756,206.70001,7.2000003,10.5,40.16765,15.161595,0.0,1,0,0,3.8085756,3.0820172,false,0.0
44268,-0.008300781,-0.021972656,-1.0380859,0.31820333,-0.11919322,1.0567756,206.70001,7.2000003,10.5,40.16765,15.161595,0.0,1,0,0,3.8085756,3.0820172,false,0.0
44268,-0.008300781,-0.021972656,-1.0380859,0.31820333,-0.11919322,1.0567756,206.70001,7.2000003,10.5,40.16765,15.161595,0.0,1,0,0,3.8085756,3.0820172,false,0.0
44268,-0.008300781,-0.021972656,-1.0380859,0.31820333,-0.11919322,1.0567756,206.70001,7.2000003,10.5,40.16765,15.161595,0.0,1,0,0,3.8085756,3.0820172,false,0.0
44268,-0.008300781,-0.021972656,-1.0380859,0.31820333,-0.11919322,1.0567756,206.70001,7.2000003,10.5,40.16765,15.161595,0.0,1,0,0,3.8085756,3.0820172,false,0.0
44268,-0.008300781,-0.021972656,-1.0380859,0.31820333,-0.11919322,1.0567756,206.70001,7.2000003,10.5,40.16765,15.161595,0.0,1,0,0,3.8085756,3.0820172,false,0.0
44268,-0.008300781,-0.021972656,-1.0380859,0.31820333,-0.11919322,1.0567756,206.70001,7.2000003,10.5,40.16765,15.161595,0.0,1,0,0,3.8085756,3.0820172,false,0.0
44269,-0.008300781,-0.021972656,-1.0380859,0.31820333,-0.11919322,1.0567756,206.70001,7.2000003,10.5,40.16765,15.161595,0.0,1,0,0,3.8085756,3.0820172,false,0.0
44269,-0.008300781,-0.021972656,-1.0380859,0.31820333,-0.11919322,1.0567756,206.70001,7.2000003,10.5,40.16765,15.161595,0.0,1,0,0,3.8085756,3.0820172,false,0.0
44269,-0.008300781,-0.021972656,-1.0380859,0.31820333,-0.11919322,1.0567756,206.70001,7.2000003,10.5,40.16765,15.161595,0.0,1,0,0,3.8085756,3.0820172,false,0.0
44269,-0.008300781,-0.021972656,-1.0380859,0.31820333,-0.11919322,1.0567756,206.70001,7.2000003,10.5,40.16765,15.161595,0.0,1,0,0,3.8085756,3.0820172,false,0.0
44269,-0.008300781,-0.021972656,-1.0380859,0.31820333,-0.11919322,1.0567756,206.70001,7.2000003,10.5,40.16765,15.161595,0.0,1,0,0,3.8085756,3.0820172,false,0.0
44269,-0.008300781,-0.021972656,-1.0380859,0.31820333,-0.11919322,1.0567756,206.70001,7.2000003,10.5,40.16765,15.161595,0.0,1,0,0,3.8085756,3.0820172,false,0.0
44269,-0.008300781,-0.021972656,-1.0380859,0.31820333,-0.11919322,1.0567756,206.70001,7.2000003,10.5,40.16765,15.161595,0.0,1,0,0,3.8085756,3.0820172,false,0.0
44269,-0.008300781,-0.021972656,-1.0380859,0.31820333,-0.11919322,1.0567756,206.70001,7.2000003,10.5,40.16765,15.161595,0.0,1,0,0,3.8085756,3.0820172,false,0.0
44269,-0.008300781,-0.021972656,-1.0380859,0.31820333,-0.11919322,1.0567756,206.70001,7.2000003,10.5,40.16765,15.161595,0.0,1,0,0,3.8085756,3.0820172,false,0.0
44269,-0.008300781,-0.021972656,-1.0380859,0.31820333,-0.11919322,1.0567756,206.70001,7.2000003,10.5,40.16765,15.161595,0.0,1,0,0,3.8085756,3.0820172,false,0.0
44269,-0.008300781,-0.021972656,-1.0380859,0.31820333,-0.11919322,1.0567756,206.70001,7.2000003,10.5,40.16765,15.161595,0.0,1,0,0,3.8085756,3.0820172,false,0.0
44269,-0.008300781,-0.021972656,-1.0380859,0.31820333,-0.11919322,1.0567756,206.70001,7.2000003,10.5,40.16765,15.161595,0.0,1,0,0,3.8085756,3.0820172,false,0.0
44269,-0.008300781,-0.021972656,-1.0380859,0.31820333,-0.11919322,1.0567756,206.70001,7.2000003,10.5,40.16765,15.161595,0.0,1,0,0,3.8085756,3.0820172,false,0.0
44269,-0.008300781,-0.021972656,-1.0380859,0.31820333,-0.11919322,1.0567756,206.70001,7.2000003,10.5,40.16765,15.161595,0.0,1,0,0,3.8085756,3.0820172,false,0.0
44270,-0.008300781,-0.021972656,-1.0380859,0.31820333,-0.11919322,1.0567756,206.70001,7.2000003,10.5,40.16765,15.161595,0.0,1,0,0,3.8085756,3.0820172,false,0.0
44270,-0.008300781,-0.021972656,-1.0380859,0.31820333,-0.11919322,1.0567756,206.70001,7.2000003,10.5,40.16765,15.161595,0.0,1,0,0,3.8085756,3.0820172,false,0.0
44270,-0.008300781,-0.021972656,-1.0380859,0.31820333,-0.11919322,1.0567756,206.70001,7.2000003,10.5,40.16765,15.161595,0.0,1,0,0,3.8085756,3.0820172,false,0.0
44270,-0.008300781,-0.021972656,-1.0380859,0.31820333,-0.11919322,1.0567756,206.70001,7.2000003,10.5,40.16765,15.161595,0.0,1,0,0,3.8085756,3.0820172,false,0.0
44270,-0.008300781,-0.021972656,-1.0380859,0.31820333,-0.11919322,1.0567756,206.70001,7.2000003,10.5,40.16765,15.161595,0.0,1,0,0,3.8085756,3.0820172,false,0.0
44270,-0.008300781,-0.021972656,-1.0380859,0.31820333,-0.11919322,1.0567756,206.70001,7.2000003,10.5,40.16765,15.161595,0.0,1,0,0,3.8085756,3.0820172,false,0.0
44270,-0.008300781,-0.021972656,-1.0380859,0.31820333,-0.11919322,1.0567756,206.70001,7.2000003,10.5,40.16765,15.161595,0.0,1,0,0,3.8085756,3.0820172,false,0.0
44270,-0.008300781,-0.021972656,-1.0380859,0.31820333,-0.11919322,1.0567756,206.70001,7.2000003,10.5,40.16765,15.161595,0.0,1,0,0,3.8085756,3.0820172,false,0.0
44270,-0.008300781,-0.021972656,-1.0380859,0.31820333,-0.11919322,1.0567756,206.70001,7.2000003,10.5,40.16765,15.161595,0.0,1,0,0,3.8085756,3.0820172,false,0.0
44270,-0.008300781,-0.021972656,-1.0380859,0.31820333,-0.11919322,1.0567756,206.70001,7.2000003,10.5,40.16765,15.161595,0.0,1,0,0,3.8085756,3.0820172,false,0.0
44270,-0.008300781,-0.021972656,-1.0380859,0.31820333,-0.11919322,1.0567756,206.70001,7.2000003,10.5,40.16765,15.161595,0.0,1,0,0,3.8085756,3.0820172,false,0.0
44270,-0.008300781,-0.021972656,-1.0380859,0.31820333,-0.11919322,1.0567756,206.70001,7.2000003,10.5,40.16765,15.161595,0.0,1,0,0,3.8085756,3.0820172,false,0.0
44270,-0.008300781,-0.021972656,-1.0380859,0.31820333,-0.11919322,1.0567756,206.70001,7.2000003,10.5,40.16765,15.161595,0.0,1,0,0,3.8085756,3.0820172,false,0.0
44270,-0.008300781,-0.021972656,-1.0380859,0.31820333,-0.11919322,1.0567756,206.70001,7.2000003,10.5,40.16765,15.161595,0.0,1,0,0,3.8085756,3.0820172,false,0.0
44270,-0.008300781,-0.021972656,-1.0380859,0.31820333,-0.11919322,1.0567756,206.70001,7.2000003,10.5,40.16765,15.161595,0.0,1,0,0,3.8085756,3.0820172,false,0.0
44270,-0.0078125,-0.023925781,-1.034668,0.31607488,-0.11812899,1.058904,207.00002,6.9,8.700001,40.179413,15.161595,0.0,1,0,0,3.8085756,3.0820172,false,0.0
44319,-0.0078125,-0.023925781,-1.034668,0.31607488,-0.11812899,1.058904,207.00002,6.9,8.700001,40.179413,15.161595,0.0,1,0,0,3.8085756,3.0820172,false,0.0
44319,-0.0078125,-0.023925781,-1.034668,0.31607488,-0.11812899,1.058904,207.00002,6.9,8.700001,40.179413,15.161595,0.0,1,0,0,3.8085756,3.0820172,false,0.0
44319,-0.0078125,-0.023925781,-1.034668,0.31607488,-0.11812899,1.058904,207.00002,6.9,8.700001,40.179413,15.161595,0.0,1,0,0,3.8085756,3.0820172,false,0.0
44319,-0.0078125,-0.023925781,-1.034668,0.31607488,-0.11812899,1.058904,207.00002,6.9,8.700001,40.179413,15.161595,0.0,1,0,0,3.8085756,3.0820172,false,0.0
44319,-0.0078125,-0.023925781,-1.034668,0.31607488,-0.11812899,1.058904,207.00002,6.9,8.700001,40.179413,15.161595,0.0,1,0,0,3.8085756,3.0820172,false,0.0
44319,-0.0078125,-0.023925781,-1.034668,0.31607488,-0.11812899,1.058904,207.00002,6.9,8.700001,40.179413,15.161595,0.0,1,0,0,3.8085756,3.0820172,false,0.0
44319,-0.0078125,-0.023925781,-1.034668,0.31607488,-0.11812899,1.058904,207.00002,6.9,8.700001,40.179413,15.161595,0.0,1,0,0,3.8085756,3.0820172,false,0.0
44319,-0.0078125,-0.023925781,-1.034668,0.31607488,-0.11812899,1.058904,207.00002,6.9,8.700001,40.179413,15.161595,0.0,1,0,0,3.8085756,3.0820172,false,0.0
44319,-0.0078125,-0.023925781,-1.034668,0.31607488,-0.11812899,1.058904,207.00002,6.9,8.700001,40.179413,15.161595,0.0,1,0,0,3.8085756,3.0820172,false,0.0
44319,-0.0078125,-0.023925781,-1.034668,0.31607488,-0.11812899,1.058904,207.00002,6.9,8.700001,40.179413,15.161595,0.0,1,0,0,3.8085756,3.0820172,false,0.0
44319,-0.0078125,-0.023925781,-1.034668,0.31607488,-0.11812899,1.058904,207.00002,6.9,8.700001,40.179413,15.161595,0.0,1,0,0,3.8085756,3.0820172,false,0.0
44319,-0.0078125,-0.023925781,-1.034668,0.31607488,-0.11812899,1.058904,207.00002,6.9,8.700001,40.179413,15.161595,0.0,1,0,0,3.8085756,3.0820172,false,0.0
44319,-0.0078125,-0.023925781,-1.034668,0.31607488,-0.11812899,1.058904,207.00002,6.9,8.700001,40.179413,15.161595,0.0,1,0,0,3.8085756,3.0820172,false,0.0
44320,-0.0078125,-0.023925781,-1.034668,0.31607488,-0.11812899,1.058904,207.00002,6.9,8.700001,40.179413,15.161595,0.0,1,0,0,3.8085756,3.0820172,false,0.0
44320,-0.0078125,-0.023925781,-1.034668,0.31607488,-0.11812899,1.058904,207.00002,6.9,8.700001,40.179413,15.161595,0.0,1,0,0,3.8085756,3.0820172,false,0.0
44320,-0.0078125,-0.023925781,-1.034668,0.31607488,-0.11812899,1.058904,207.00002,6.9,8.700001,40.179413,15.161595,0.0,1,0,0,3.8085756,3.0820172,false,0.0
44320,-0.0078125,-0.023925781,-1.034668,0.31607488,-0.11812899,1.058904,207.00002,6.9,8.700001,40.179413,15.161595,0.0,1,0,0,3.8085756,3.0820172,false,0.0
44320,-0.0078125,-0.023925781,-1.034668,0.31607488,-0.11812899,1.058904,207.00002,6.9,8.700001,40.179413,15.161595,0.0,1,0,0,3.8085756,3.0820172,false,0.0
44320,-0.0078125,-0.023925781,-1.034668,0.31607488,-0.11812899,1.058904,207.00002,6.9,8.700001,40.179413,15.161595,0.0,1,0,0,3.8085756,3.0820172,false,0.0
44320,-0.0078125,-0.023925781,-1.034668,0.31607488,-0.11812899,1.058904,207.00002,6.9,8.700001,40.179413,15.161595,0.0,1,0,0,3.8085756,3.0820172,false,0.0
44320,-0.0078125,-0.023925781,-1.034668,0.31607488,-0.11812899,1.058904,207.00002,6.9,8.700001,40.179413,15.161595,0.0,1,0,0,3.8085756,3.0820172,false,0.0
44320,-0.0078125,-0.023925781,-1.034668,0.31607488,-0.11812899,1.058904,207.00002,6.9,8.700001,40.179413,15.161595,0.0,1,0,0,3.8085756,3.0820172,false,0.0
44320,-0.0078125,-0.023925781,-1.034668,0.31607488,-0.11812899,1.058904,207.00002,6.9,8.700001,40.179413,15.161595,0.0,1,0,0,3.8085756,3.0820172,false,0.0
44320,-0.0078125,-0.023925781,-1.034668,0.31607488,-0.11812899,1.058904,207.00002,6.9,8.700001,40.179413,15.161595,0.0,1,0,0,3.8085756,3.0820172,false,0.0
44320,-0.0078125,-0.023925781,-1.034668,0.31607488,-0.11812899,1.058904,207.00002,6.9,8.700001,40.179413,15.161595,0.0,1,0,0,3.8085756,3.0820172,false,0.0
44320,-0.0078125,-0.023925781,-1.034668,0.31607488,-0.11812899,1.058904,207.00002,6.9,8.700001,40.179413,15.161595,0.0,1,0,0,3.8085756,3.0820172,false,0.0
44320,-0.0078125,-0.023925781,-1.034668,0.31607488,-0.11812899,1.058904,207.00002,6.9,8.700001,40.179413,15.161595,0.0,1,0,0,3.8085756,3.0820172,false,0.0
44320,-0.0078125,-0.023925781,-1.034668,0.31607488,-0.11812899,1.058904,207.00002,6.9,8.700001,40.179413,15.161595,0.0,1,0,0,3.8085756,3.0820172,false,0.0
44320,-0.0078125,-0.023925781,-1.034668,0.31607488,-0.11812899,1.058904,207.00002,6.9,8.700001,40.179413,15.161595,0.0,1,0,0,3.8085756,3.0820172,false,0.0
44320,-0.0078125,-0.023925781,-1.034668,0.31607488,-0.11812899,1.058904,207.00002,6.9,8.700001,40.179413,15.161595,0.0,1,0,0,3.8085756,3.0820172,false,0.0
44320,-0.0078125,-0.023925781,-1.034668,0.31607488,-0.11812899,1.058904,207.00002,6.9,8.700001,40.179413,15.161595,0.0,1,0,0,3.8085756,3.0820172,false,0.0
44320,-0.0078125,-0.023925781,-1.034668,0.31607488,-0.11812899,1.058904,207.00002,6.9,8.700001,40.179413,15.161595,0.0,1,0,0,3.8085756,3.0820172,false,0.0
44320,-0.0078125,-0.023925781,-1.034668,0.31607488,-0.11812899,1.058904,207.00002,6.9,8.700001,40.179413,15.161595,0.0,1,0,0,3.8085756,3.0820172,false,0.0
44321,-0.0078125,-0.023925781,-1.034668,0.31607488,-0.11812899,1.058904,207.00002,6.9,8.700001,40.179413,15.161595,0.0,1,0,0,3.8085756,3.0820172,false,0.0
44321,-0.0078125,-0.023925781,-1.034668,0.31607488,-0.11812899,1.058904,207.00002,6.9,8.700001,40.179413,15.161595,0.0,1,0,0,3.8085756,3.0820172,false,0.0
44321,-0.0078125,-0.023925781,-1.034668,0.31607488,-0.11812899,1.058904,207.00002,6.9,8.700001,40.179413,15.161595,0.0,1,0,0,3.8085756,3.0820172,false,0.0
44321,-0.0078125,-0.023925781,-1.034668,0.31607488,-0.11812899,1.058904,207.00002,6.9,8.700001,40.179413,15.161595,0.0,1,0,0,3.8085756,3.0820172,false,0.0
44321,-0.0078125,-0.023925781,-1.034668,0.31607488,-0.11812899,1.058904,207.00002,6.9,8.700001,40.179413,15.161595,0.0,1,0,0,3.8085756,3.0820172,false,0.0
44321,-0.0078125,-0.023925781,-1.034668,0.31607488,-0.11812899,1.058904,207.00002,6.9,8.700001,40.179413,15.161595,0.0,1,0,0,3.8085756,3.0820172,false,0.0
44321,-0.0078125,-0.023925781,-1.034668,0.31607488,-0.11812899,1.058904,207.00002,6.9,8.700001,40.179413,15.161595,0.0,1,0,0,3.8085756,3.0820172,false,0.0
44321,-0.0078125,-0.023925781,-1.034668,0.31607488,-0.11812899,1.058904,207.00002,6.9,8.700001,40.179413,15.161595,0.0,1,0,0,3.8085756,3.0820172,false,0.0
44321,-0.0078125,-0.023925781,-1.034668,0.31607488,-0.11812899,1.058904,207.00002,6.9,8.700001,40.179413,15.161595,0.0,1,0,0,3.8085756,3.0820172,false,0.0
44321,-0.0078125,-0.025878906,-1.0356445,0.31607488,-0.11600055,1.0578398,207.00002,5.4,8.700001,40.17059,15.161595,0.0,1,0,0,3.8085756,3.0936904,false,0.0
44379,-0.0078125,-0.025878906,-1.0356445,0.31607488,-0.11600055,1.0578398,207.00002,5.4,8.700001,40.17059,15.161595,0.0,1,0,0,3.8085756,3.0936904,false,0.0
44379,-0.0078125,-0.025878906,-1.0356445,0.31607488,-0.11600055,1.0578398,207.00002,5.4,8.700001,40.17059,15.161595,0.0,1,0,0,3.8085756,3.0936904,false,0.0
44379,-0.0078125,-0.025878906,-1.0356445,0.31607488,-0.11600055,1.0578398,207.00002,5.4,8.700001,40.17059,15.161595,0.0,1,0,0,3.8085756,3.0936904,false,0.0
44379,-0.0078125,-0.025878906,-1.0356445,0.31607488,-0.11600055,1.0578398,207.00002,5.4,8.700001,40.17059,15.161595,0.0,1,0,0,3.8085756,3.0936904,false,0.0
44379,-0.0078125,-0.025878906,-1.0356445,0.31607488,-0.11600055,1.0578398,207.00002,5.4,8.700001,40.17059,15.161595,0.0,1,0,0,3.8085756,3.0936904,false,0.0
44379,-0.0078125,-0.025878906,-1.0356445,0.31607488,-0.11600055,1.0578398,207.00002,5.4,8.700001,40.17059,15.161595,0.0,1,0,0,3.8085756,3.0936904,false,0.0
44379,-0.0078125,-0.025878906,-1.0356445,0.31607488,-0.11600055,1.0578398,207.00002,5.4,8.700001,40.17059,15.161595,0.0,1,0,0,3.8085756,3.0936904,false,0.0
44379,-0.0078125,-0.025878906,-1.0356445,0.31607488,-0.11600055,1.0578398,207.00002,5.4,8.700001,40.17059,15.161595,0.0,1,0,0,3.8085756,3.0936904,false,0.0
44379,-0.0078125,-0.025878906,-1.0356445,0.31607488,-0.11600055,1.0578398,207.00002,5.4,8.700001,40.17059,15.161595,0.0,1,0,0,3.8085756,3.0936904,false,0.0
44379,-0.0078125,-0.025878906,-1.0356445,0.31607488,-0.11600055,1.0578398,207.00002,5.4,8.700001,40.17059,15.161595,0.0,1,0,0,3.8085756,3.0936904,false,0.0
44379,-0.0078125,-0.025878906,-1.0356445,0.31607488,-0.11600055,1.0578398,207.00002,5.4,8.700001,40.17059,15.161595,0.0,1,0,0,3.8085756,3.0936904,false,0.0
44379,-0.0078125,-0.025878906,-1.0356445,0.31607488,-0.11600055,1.0578398,207.00002,5.4,8.700001,40.17059,15.161595,0.0,1,0,0,3.8085756,3.0936904,false,0.0
44379,-0.0078125,-0.025878906,-1.0356445,0.31607488,-0.11600055,1.0578398,207.00002,5.4,8.700001,40.17059,15.161595,0.0,1,0,0,3.8085756,3.0936904,false,0.0
44379,-0.0078125,-0.025878906,-1.0356445,0.31607488,-0.11600055,1.0578398,207.00002,5.4,8.700001,40.17059,15.161595,0.0,1,0,0,3.8085756,3.0936904,false,0.0
44379,-0.0078125,-0.025878906,-1.0356445,0.31607488,-0.11600055,1.0578398,207.00002,5.4,8.700001,40.17059,15.161595,0.0,1,0,0,3.8085756,3.0936904,false,0.0
44379,-0.0078125,-0.025878906,-1.0356445,0.31607488,-0.11600055,1.0578398,207.00002,5.4,8.700001,40.17059,15.161595,0.0,1,0,0,3.8085756,3.0936904,false,0.0
44379,-0.0078125,-0.025878906,-1.0356445,0.31607488,-0.11600055,1.0578398,207.00002,5.4,8.700001,40.17059,15.161595,0.0,1,0,0,3.8085756,3.0936904,false,0.0
44379,-0.0078125,-0.025878906,-1.0356445,0.31607488,-0.11600055,1.0578398,207.00002,5.4,8.700001,40.17059,15.161595,0.0,1,0,0,3.8085756,3.0936904,false,0.0
44379,-0.0078125,-0.025878906,-1.0356445,0.31607488,-0.11600055,1.0578398,207.00002,5.4,8.700001,40.17059,15.161595,0.0,1,0,0,3.8085756,3.0936904,false,0.0
44379,-0.0078125,-0.025878906,-1.0356445,0.31607488,-0.11600055,1.0578398,207.00002,5.4,8.700001,40.17059,15.161595,0.0,1,0,0,3.8085756,3.0936904,false,0.0
44380,-0.0078125,-0.025878906,-1.0356445,0.31607488,-0.11600055,1.0578398,207.00002,5.4,8.700001,40.17059,15.161595,0.0,1,0,0,3.8085756,3.0936904,false,0.0
44380,-0.0078125,-0.025878906,-1.0356445,0.31607488,-0.11600055,1.0578398,207.00002,5.4,8.700001,40.17059,15.161595,0.0,1,0,0,3.8085756,3.0936904,false,0.0
44380,-0.0078125,-0.025878906,-1.0356445,0.31607488,-0.11600055,1.0578398,207.00002,5.4,8.700001,40.17059,15.161595,0.0,1,0,0,3.8085756,3.0936904,false,0.0
44380,-0.0078125,-0.025878906,-1.0356445,0.31607488,-0.11600055,1.0578398,207.00002,5.4,8.700001,40.17059,15.161595,0.0,1,0,0,3.8085756,3.0936904,false,0.0
44380,-0.0078125,-0.025878906,-1.0356445,0.31607488,-0.11600055,1.0578398,207.00002,5.4,8.700001,40.17059,15.161595,0.0,1,0,0,3.8085756,3.0936904,false,0.0
44380,-0.0078125,-0.025878906,-1.0356445,0.31607488,-0.11600055,1.0578398,207.00002,5.4,8.700001,40.17059,15.161595,0.0,1,0,0,3.8085756,3.0936904,false,0.0
44380,-0.0078125,-0.025878906,-1.0356445,0.31607488,-0.11600055,1.0578398,207.00002,5.4,8.700001,40.17059,15.161595,0.0,1,0,0,3.8085756,3.0936904,false,0.0
44380,-0.0078125,-0.025878906,-1.0356445,0.31607488,-0.11600055,1.0578398,207.00002,5.4,8.700001,40.17059,15.161595,0.0,1,0,0,3.8085756,3.0936904,false,0.0
44380,-0.0078125,-0.025878906,-1.0356445,0.31607488,-0.11600055,1.0578398,207.00002,5.4,8.700001,40.17059,15.161595,0.0,1,0,0,3.8085756,3.0936904,false,0.0
44380,-0.0078125,-0.025878906,-1.0356445,0.31607488,-0.11600055,1.0578398,207.00002,5.4,8.700001,40.17059,15.161595,0.0,1,0,0,3.8085756,3.0936904,false,0.0
44380,-0.0078125,-0.025878906,-1.0356445,0.31607488,-0.11600055,1.0578398,207.00002,5.4,8.700001,40.17059,15.161595,0.0,1,0,0,3.8085756,3.0936904,false,0.0
44380,-0.0078125,-0.025878906,-1.0356445,0.31607488,-0.11600055,1.0578398,207.00002,5.4,8.700001,40.17059,15.161595,0.0,1,0,0,3.8085756,3.0936904,false,0.0
44380,-0.0078125,-0.025878906,-1.0356445,0.31607488,-0.11600055,1.0578398,207.00002,5.4,8.700001,40.17059,15.161595,0.0,1,0,0,3.8085756,3.0936904,false,0.0
44380,-0.0078125,-0.025878906,-1.0356445,0.31607488,-0.11600055,1.0578398,207.00002,5.4,8.700001,40.17059,15.161595,0.0,1,0,0,3.8085756,3.0936904,false,0.0
44380,-0.0078125,-0.025878906,-1.0356445,0.31607488,-0.11600055,1.0578398,207.00002,5.4,8.700001,40.17059,15.161595,0.0,1,0,0,3.8085756,3.0936904,false,0.0
44380,-0.0078125,-0.025878906,-1.0356445,0.31607488,-0.11600055,1.0578398,207.00002,5.4,8.700001,40.17059,15.161595,0.0,1,0,0,3.8085756,3.0936904,false,0.0
44380,-0.0078125,-0.025878906,-1.0356445,0.31607488,-0.11600055,1.0578398,207.00002,5.4,8.700001,40.17059,15.161595,0.0,1,0,0,3.8085756,3.0936904,false,0.0
44380,-0.0078125,-0.025878906,-1.0356445,0.31607488,-0.11600055,1.0578398,207.00002,5.4,8.700001,40.17059,15.161595,0.0,1,0,0,3.8085756,3.0936904,false,0.0
44380,-0.0078125,-0.025878906,-1.0356445,0.31607488,-0.11600055,1.0578398,207.00002,5.4,8.700001,40.17059,15.161595,0.0,1,0,0,3.8085756,3.0936904,false,0.0
44380,-0.0078125,-0.025878906,-1.0356445,0.31607488,-0.11600055,1.0578398,207.00002,5.4,8.700001,40.17059,15.161595,0.0,1,0,0,3.8085756,3.0936904,false,0.0
44380,-0.0078125,-0.025878906,-1.0356445,0.31607488,-0.11600055,1.0578398,207.00002,5.4,8.700001,40.17059,15.161595,0.0,1,0,0,3.8085756,3.0936904,false,0.0
44380,-0.0078125,-0.025878906,-1.0356445,0.31607488,-0.11600055,1.0578398,207.00002,5.4,8.700001,40.17059,15.161595,0.0,1,0,0,3.8085756,3.0936904,false,0.0
44380,-0.0078125,-0.024414062,-1.0351562,0.31501064,-0.11919322,1.0567756,205.50002,6.3,8.1,40.191177,15.161595,0.0,1,0,0,3.8085756,3.0936904,false,0.0
44422,-0.0078125,-0.024414062,-1.0351562,0.31501064,-0.11919322,1.0567756,205.50002,6.3,8.1,40.191177,15.161595,0.0,1,0,0,3.8085756,3.0936904,false,0.0
44422,-0.0078125,-0.024414062,-1.0351562,0.31501064,-0.11919322,1.0567756,205.50002,6.3,8.1,40.191177,15.161595,0.0,1,0,0,3.8085756,3.0936904,false,0.0
44422,-0.0078125,-0.024414062,-1.0351562,0.31501064,-0.11919322,1.0567756,205.50002,6.3,8.1,40.191177,15.161595,0.0,1,0,0,3.8085756,3.0936904,false,0.0
44422,-0.0078125,-0.024414062,-1.0351562,0.31501064,-0.11919322,1.0567756,205.50002,6.3,8.1,40.191177,15.161595,0.0,1,0,0,3.8085756,3.0936904,false,0.0
44422,-0.0078125,-0.024414062,-1.0351562,0.31501064,-0.11919322,1.0567756,205.50002,6.3,8.1,40.191177,15.161595,0.0,1,0,0,3.8085756,3.0936904,false,0.0
44422,-0.0078125,-0.024414062,-1.0351562,0.31501064,-0.11919322,1.0567756,205.50002,6.3,8.1,40.191177,15.161595,0.0,1,0,0,3.8085756,3.0936904,false,0.0
44422,-0.0078125,-0.024414062,-1.0351562,0.31501064,-0.11919322,1.0567756,205.50002,6.3,8.1,40.191177,15.161595,0.0,1,0,0,3.8085756,3.0936904,false,0.0
44422,-0.0078125,-0.024414062,-1.0351562,0.31501064,-0.11919322,1.0567756,205.50002,6.3,8.1,40.191177,15.161595,0.0,1,0,0,3.8085756,3.0936904,false,0.0
44422,-0.0078125,-0.024414062,-1.0351562,0.31501064,-0.11919322,1.0567756,205.50002,6.3,8.1,40.191177,15.161595,0.0,1,0,0,3.8085756,3.0936904,false,0.0
44422,-0.0078125,-0.024414062,-1.0351562,0.31501064,-0.11919322,1.0567756,205.50002,6.3,8.1,40.191177,15.161595,0.0,1,0,0,3.8085756,3.0936904,false,0.0
44422,-0.0078125,-0.024414062,-1.0351562,0.31501064,-0.11919322,1.0567756,205.50002,6.3,8.1,40.191177,15.161595,0.0,1,0,0,3.8085756,3.0936904,false,0.0
44431,-0.0078125,-0.024414062,-1.0351562,0.31501064,-0.11919322,1.0567756,205.50002,6.3,8.1,40.191177,15.161595,0.0,1,0,0,3.8085756,3.0936904,false,0.0
44431,-0.0078125,-0.024414062,-1.0351562,0.31501064,-0.11919322,1.0567756,205.50002,6.3,8.1,40.191177,15.161595,0.0,1,0,0,3.8085756,3.0936904,false,0.0
44431,-0.0078125,-0.024414062,-1.0351562,0.31501064,-0.11919322,1.0567756,205.50002,6.3,8.1,40.191177,15.161595,0.0,1,0,0,3.8085756,3.0936904,false,0.0
44431,-0.0078125,-0.024414062,-1.0351562,0.31501064,-0.11919322,1.0567756,205.50002,6.3,8.1,40.191177,15.161595,0.0,1,0,0,3.8085756,3.0936904,false,0.0
44431,-0.0078125,-0.024414062,-1.0351562,0.31501064,-0.11919322,1.0567756,205.50002,6.3,8.1,40.191177,15.161595,0.0,1,0,0,3.8085756,3.0936904,false,0.0
44431,-0.0078125,-0.024414062,-1.0351562,0.31501064,-0.11919322,1.0567756,205.50002,6.3,8.1,40.191177,15.161595,0.0,1,0,0,3.8085756,3.0936904,false,0.0
44431,-0.0078125,-0.024414062,-1.0351562,0.31501064,-0.11919322,1.0567756,205.50002,6.3,8.1,40.191177,15.161595,0.0,1,0,0,3.8085756,3.0936904,false,0.0
44431,-0.0078125,-0.024414062,-1.0351562,0.31501064,-0.11919322,1.0567756,205.50002,6.3,8.1,40.191177,15.161595,0.0,1,0,0,3.8085756,3.0936904,false,0.0
44431,-0.0078125,-0.024414062,-1.0351562,0.31501064,-0.11919322,1.0567756,205.50002,6.3,8.1,40.191177,15.161595,0.0,1,0,0,3.8085756,3.0936904,false,0.0
44431,-0.0078125,-0.024414062,-1.0351562,0.31501064,-0.11919322,1.0567756,205.50002,6.3,8.1,40.191177,15.161595,0.0,1,0,0,3.8085756,3.0936904,false,0.0
44431,-0.0078125,-0.024414062,-1.0351562,0.31501064,-0.11919322,1.0567756,205.50002,6.3,8.1,40.191177,15.161595,0.0,1,0,0,3.8085756,3.0936904,false,0.0
44431,-0.0078125,-0.024414062,-1.0351562,0.31501064,-0.11919322,1.0567756,205.50002,6.3,8.1,40.191177,15.161595,0.0,1,0,0,3.8085756,3.0936904,false,0.0
44431,-0.0078125,-0.024414062,-1.0351562,0.31501064,-0.11919322,1.0567756,205.50002,6.3,8.1,40.191177,15.161595,0.0,1,0,0,3.8085756,3.0936904,false,0.0
44431,-0.0078125,-0.024414062,-1.0351562,0.31501064,-0.11919322,1.0567756,205.50002,6.3,8.1,40.191177,15.161595,0.0,1,0,0,3.8085756,3.0936904,false,0.0
44431,-0.0078125,-0.024414062,-1.0351562,0.31501064,-0.11919322,1.0567756,205.50002,6.3,8.1,40.191177,15.161595,0.0,1,0,0,3.8085756,3.0936904,false,0.0
44431,-0.0078125,-0.024414062,-1.0351562,0.31501064,-0.11919322,1.0567756,205.50002,6.3,8.1,40.191177,15.161595,0.0,1,0,0,3.8085756,3.0936904,false,0.0
44431,-0.0078125,-0.024414062,-1.0351562,0.31501064,-0.11919322,1.0567756,205.50002,6.3,8.1,40.191177,15.161595,0.0,1,0,0,3.8085756,3.0936904,false,0.0
44431,-0.0078125,-0.024414062,-1.0351562,0.31501064,-0.11919322,1.0567756,205.50002,6.3,8.1,40.191177,15.161595,0.0,1,0,0,3.8085756,3.0936904,false,0.0
44431,-0.0078125,-0.024414062,-1.0351562,0.31501064,-0.11919322,1.0567756,205.50002,6.3,8.1,40.191177,15.161595,0.0,1,0,0,3.8085756,3.0936904,false,0.0
44431,-0.0078125,-0.024414062,-1.0351562,0.31501064,-0.11919322,1.0567756,205.50002,6.3,8.1,40.191177,15.161595,0.0,1,0,0,3.8085756,3.0936904,false,0.0
44431,-0.0078125,-0.024414062,-1.0351562,0.31501064,-0.11919322,1.0567756,205.50002,6.3,8.1,40.191177,15.161595,0.0,1,0,0,3.8085756,3.0936904,false,0.0
44431,-0.0078125,-0.024414062,-1.0351562,0.31501064,-0.11919322,1.0567756,205.50002,6.3,8.1,40.191177,15.161595,0.0,1,0,0,3.8085756,3.0936904,false,0.0
44431,-0.0078125,-0.024414062,-1.0351562,0.31501064,-0.11919322,1.0567756,205.50002,6.3,8.1,40.191177,15.161595,0.0,1,0,0,3.8085756,3.0936904,false,0.0
44431,-0.0078125,-0.024414062,-1.0351562,0.31501064,-0.11919322,1.0567756,205.50002,6.3,8.1,40.191177,15.161595,0.0,1,0,0,3.8085756,3.0936904,false,0.0
44431,-0.0078125,-0.024414062,-1.0351562,0.31501064,-0.11919322,1.0567756,205.50002,6.3,8.1,40.191177,15.161595,0.0,1,0,0,3.8085756,3.0936904,false,0.0
44431,-0.0078125,-0.024414062,-1.0351562,0.31501064,-0.11919322,1.0567756,205.50002,6.3,8.1,40.191177,15.161595,0.0,1,0,0,3.8085756,3.0936904,false,0.0
44431,-0.0078125,-0.024414062,-1.0351562,0.31501064,-0.11919322,1.0567756,205.50002,6.3,8.1,40.191177,15.161595,0.0,1,0,0,3.8085756,3.0936904,false,0.0
44431,-0.0078125,-0.024414062,-1.0351562,0.31501064,-0.11919322,1.0567756,205.50002,6.3,8.1,40.191177,15.161595,0.0,1,0,0,3.8085756,3.0936904,false,0.0
44431,-0.0078125,-0.024414062,-1.0351562,0.31501064,-0.11919322,1.0567756,205.50002,6.3,8.1,40.191177,15.161595,0.0,1,0,0,3.8085756,3.0936904,false,0.0
44431,-0.0078125,-0.024414062,-1.0351562,0.31501064,-0.11919322,1.0567756,205.50002,6.3,8.1,40.191177,15.161595,0.0,1,0,0,3.8085756,3.0936904,false,0.0
44431,-0.0078125,-0.024414062,-1.0351562,0.31501064,-0.11919322,1.0567756,205.50002,6.3,8.1,40.191177,15.161595,0.0,1,0,0,3.8085756,3.0936904,false,0.0
44431,-0.0073242188,-0.021484375,-1.0371094,0.31820333,-0.117064774,1.058904,208.20001,7.2000003,9.0,40.188236,15.161595,0.0,1,0,0,3.8144503,3.0878158,false,0.0
44482,-0.0073242188,-0.021484375,-1.0371094,0.31820333,-0.117064774,1.058904,208.20001,7.2000003,9.0,40.188236,15.161595,0.0,1,0,0,3.8144503,3.0878158,false,0.0
44482,-0.0073242188,-0.021484375,-1.0371094,0.31820333,-0.117064774,1.058904,208.20001,7.2000003,9.0,40.188236,15.161595,0.0,1,0,0,3.8144503,3.0878158,false,0.0
44482,-0.0073242188,-0.021484375,-1.0371094,0.31820333,-0.117064774,1.058904,208.20001,7.2000003,9.0,40.188236,15.161595,0.0,1,0,0,3.8144503,3.0878158,false,0.0
44482,-0.0073242188,-0.021484375,-1.0371094,0.31820333,-0.117064774,1.058904,208.20001,7.2000003,9.0,40.188236,15.161595,0.0,1,0,0,3.8144503,3.0878158,false,0.0
44482,-0.0073242188,-0.021484375,-1.0371094,0.31820333,-0.117064774,1.058904,208.20001,7.2000003,9.0,40.188236,15.161595,0.0,1,0,0,3.8144503,3.0878158,false,0.0
44482,-0.0073242188,-0.021484375,-1.0371094,0.31820333,-0.117064774,1.058904,208.20001,7.2000003,9.0,40.188236,15.161595,0.0,1,0,0,3.8144503,3.0878158,false,0.0
44482,-0.0073242188,-0.021484375,-1.0371094,0.31820333,-0.117064774,1.058904,208.20001,7.2000003,9.0,40.188236,15.161595,0.0,1,0,0,3.8144503,3.0878158,false,0.0
44482,-0.0073242188,-0.021484375,-1.0371094,0.31820333,-0.117064774,1.058904,208.20001,7.2000003,9.0,40.188236,15.161595,0.0,1,0,0,3.8144503,3.0878158,false,0.0
44482,-0.0073242188,-0.021484375,-1.0371094,0.31820333,-0.117064774,1.058904,208.20001,7.2000003,9.0,40.188236,15.161595,0.0,1,0,0,3.8144503,3.0878158,false,0.0
44482,-0.0073242188,-0.021484375,-1.0371094,0.31820333,-0.117064774,1.058904,208.20001,7.2000003,9.0,40.188236,15.161595,0.0,1,0,0,3.8144503,3.0878158,false,0.0
44482,-0.0073242188,-0.021484375,-1.0371094,0.31820333,-0.117064774,1.058904,208.20001,7.2000003,9.0,40.188236,15.161595,0.0,1,0,0,3.8144503,3.0878158,false,0.0
44482,-0.0073242188,-0.021484375,-1.0371094,0.31820333,-0.117064774,1.058904,208.20001,7.2000003,9.0,40.188236,15.161595,0.0,1,0,0,3.8144503,3.0878158,false,0.0
44482,-0.0073242188,-0.021484375,-1.0371094,0.31820333,-0.117064774,1.058904,208.20001,7.2000003,9.0,40.188236,15.161595,0.0,1,0,0,3.8144503,3.0878158,false,0.0
44482,-0.0073242188,-0.021484375,-1.0371094,0.31820333,-0.117064774,1.058904,208.20001,7.2000003,9.0,40.188236,15.161595,0.0,1,0,0,3.8144503,3.0878158,false,0.0
44482,-0.0073242188,-0.021484375,-1.0371094,0.31820333,-0.117064774,1.058904,208.20001,7.2000003,9.0,40.188236,15.161595,0.0,1,0,0,3.8144503,3.0878158,false,0.0
44482,-0.0073242188,-0.021484375,-1.0371094,0.31820333,-0.117064774,1.058904,208.20001,7.2000003,9.0,40.188236,15.161595,0.0,1,0,0,3.8144503,3.0878158,false,0.0
44482,-0.0073242188,-0.021484375,-1.0371094,0.31820333,-0.117064774,1.058904,208.20001,7.2000003,9.0,40.188236,15.161595,0.0,1,0,0,3.8144503,3.0878158,false,0.0
44482,-0.0073242188,-0.021484375,-1.0371094,0.31820333,-0.117064774,1.058904,208.20001,7.2000003,9.0,40.188236,15.161595,0.0,1,0,0,3.8144503,3.0878158,false,0.0
44482,-0.0073242188,-0.021484375,-1.0371094,0.31820333,-0.117064774,1.058904,208.20001,7.2000003,9.0,40.188236,15.161595,0.0,1,0,0,3.8144503,3.0878158,false,0.0
44482,-0.0073242188,-0.021484375,-1.0371094,0.31820333,-0.117064774,1.058904,208.20001,7.2000003,9.0,40.188236,15.161595,0.0,1,0,0,3.8144503,3.0878158,false,0.0
44482,-0.0073242188,-0.021484375,-1.0371094,0.31820333,-0.117064774,1.058904,208.20001,7.2000003,9.0,40.188236,15.161595,0.0,1,0,0,3.8144503,3.0878158,false,0.0
44482,-0.0073242188,-0.021484375,-1.0371094,0.31820333,-0.117064774,1.058904,208.20001,7.2000003,9.0,40.188236,15.161595,0.0,1,0,0,3.8144503,3.0878158,false,0.0
44482,-0.0073242188,-0.021484375,-1.0371094,0.31820333,-0.117064774,1.058904,208.20001,7.2000003,9.0,40.188236,15.161595,0.0,1,0,0,3.8144503,3.0878158,false,0.0
44483,-0.0073242188,-0.021484375,-1.0371094,0.31820333,-0.117064774,1.058904,208.20001,7.2000003,9.0,40.188236,15.161595,0.0,1,0,0,3.8144503,3.0878158,false,0.0
44483,-0.0073242188,-0.021484375,-1.0371094,0.31820333,-0.117064774,1.058904,208.20001,7.2000003,9.0,40.188236,15.161595,0.0,1,0,0,3.8144503,3.0878158,false,0.0
44483,-0.0073242188,-0.021484375,-1.0371094,0.31820333,-0.117064774,1.058904,208.20001,7.2000003,9.0,40.188236,15.161595,0.0,1,0,0,3.8144503,3.0878158,false,0.0
44483,-0.0073242188,-0.021484375,-1.0371094,0.31820333,-0.117064774,1.058904,208.20001,7.2000003,9.0,40.188236,15.161595,0.0,1,0,0,3.8144503,3.0878158,false,0.0
44483,-0.0073242188,-0.021484375,-1.0371094,0.31820333,-0.117064774,1.058904,208.20001,7.2000003,9.0,40.188236,15.161595,0.0,1,0,0,3.8144503,3.0878158,false,0.0
44483,-0.0073242188,-0.021484375,-1.0371094,0.31820333,-0.117064774,1.058904,208.20001,7.2000003,9.0,40.188236,15.161595,0.0,1,0,0,3.8144503,3.0878158,false,0.0
44483,-0.0073242188,-0.021484375,-1.0371094,0.31820333,-0.117064774,1.058904,208.20001,7.2000003,9.0,40.188236,15.161595,0.0,1,0,0,3.8144503,3.0878158,false,0.0
44483,-0.0073242188,-0.021484375,-1.0371094,0.31820333,-0.117064774,1.058904,208.20001,7.2000003,9.0,40.188236,15.161595,0.0,1,0,0,3.8144503,3.0878158,false,0.0
44483,-0.0073242188,-0.021484375,-1.0371094,0.31820333,-0.117064774,1.058904,208.20001,7.2000003,9.0,40.188236,15.161595,0.0,1,0,0,3.8144503,3.0878158,false,0.0
44483,-0.0073242188,-0.021484375,-1.0371094,0.31820333,-0.117064774,1.058904,208.20001,7.2000003,9.0,40.188236,15.161595,0.0,1,0,0,3.8144503,3.0878158,false,0.0
44483,-0.0073242188,-0.021484375,-1.0371094,0.31820333,-0.117064774,1.058904,208.20001,7.2000003,9.0,40.188236,15.161595,0.0,1,0,0,3.8144503,3.0878158,false,0.0
44483,-0.0073242188,-0.021484375,-1.0371094,0.31820333,-0.117064774,1.058904,208.20001,7.2000003,9.0,40.188236,15.161595,0.0,1,0,0,3.8144503,3.0878158,false,0.0
44483,-0.0073242188,-0.021484375,-1.0371094,0.31820333,-0.117064774,1.058904,208.20001,7.2000003,9.0,40.188236,15.161595,0.0,1,0,0,3.8144503,3.0878158,false,0.0
44483,-0.0073242188,-0.021484375,-1.0371094,0.31820333,-0.117064774,1.058904,208.20001,7.2000003,9.0,40.188236,15.161595,0.0,1,0,0,3.8144503,3.0878158,false,0.0
44483,-0.0073242188,-0.021484375,-1.0371094,0.31820333,-0.117064774,1.058904,208.20001,7.2000003,9.0,40.188236,15.161595,0.0,1,0,0,3.8144503,3.0878158,false,0.0
44483,-0.0073242188,-0.021484375,-1.0371094,0.31820333,-0.117064774,1.058904,208.20001,7.2000003,9.0,40.188236,15.161595,0.0,1,0,0,3.8144503,3.0878158,false,0.0
44483,-0.0073242188,-0.021484375,-1.0371094,0.31820333,-0.117064774,1.058904,208.20001,7.2000003,9.0,40.188236,15.161595,0.0,1,0,0,3.8144503,3.0878158,false,0.0
44483,-0.0073242188,-0.021484375,-1.0371094,0.31820333,-0.117064774,1.058904,208.20001,7.2000003,9.0,40.188236,15.161595,0.0,1,0,0,3.8144503,3.0878158,false,0.0
44483,-0.0073242188,-0.021484375,-1.0371094,0.31820333,-0.117064774,1.058904,208.20001,7.2000003,9.0,40.188236,15.161595,0.0,1,0,0,3.8144503,3.0878158,false,0.0
44483,-0.010253906,-0.026855469,-1.0361328,0.3128822,-0.11812899,1.058904,212.1,7.5000005,10.8,40.185295,15.161595,0.0,1,0,0,3.8027008,3.10544,false,0.0
44533,-0.010253906,-0.026855469,-1.0361328,0.3128822,-0.11812899,1.058904,212.1,7.5000005,10.8,40.185295,15.161595,0.0,1,0,0,3.8027008,3.10544,false,0.0
44533,-0.010253906,-0.026855469,-1.0361328,0.3128822,-0.11812899,1.058904,212.1,7.5000005,10.8,40.185295,15.161595,0.0,1,0,0,3.8027008,3.10544,false,0.0
44533,-0.010253906,-0.026855469,-1.0361328,0.3128822,-0.11812899,1.058904,212.1,7.5000005,10.8,40.185295,15.161595,0.0,1,0,0,3.8027008,3.10544,false,0.0
44533,-0.010253906,-0.026855469,-1.0361328,0.3128822,-0.11812899,1.058904,212.1,7.5000005,10.8,40.185295,15.161595,0.0,1,0,0,3.8027008,3.10544,false,0.0
44533,-0.010253906,-0.026855469,-1.0361328,0.3128822,-0.11812899,1.058904,212.1,7.5000005,10.8,40.185295,15.161595,0.0,1,0,0,3.8027008,3.10544,false,0.0
44533,-0.010253906,-0.026855469,-1.0361328,0.3128822,-0.11812899,1.058904,212.1,7.5000005,10.8,40.185295,15.161595,0.0,1,0,0,3.8027008,3.10544,false,0.0
